#time,accel_x,accel_y,accel_z
1414.198445,-9622.677246,-222.061783,1225.752797
1414.198766,-9474.636058,-370.102971,1072.533697
1414.199086,-9548.656652,-222.061783,1455.581446
1414.199407,-9548.656652,-148.041188,1072.533697
1414.199728,-9548.656652,0.000000,1149.143247
1414.200048,-9844.739029,-296.082377,1225.752797
1414.200369,-9548.656652,-370.102971,995.924147
1414.200690,-9770.718434,-296.082377,919.314598
1414.201010,-9770.718434,-814.226536,612.876398
1414.201331,-9696.697840,-222.061783,919.314598
1414.201652,-9696.697840,-222.061783,842.705048
1414.201972,-9474.636058,-370.102971,1149.143247
1414.202293,-9474.636058,-444.123565,919.314598
1414.202614,-9548.656652,-222.061783,1072.533697
1414.202934,-9548.656652,-222.061783,1225.752797
1414.203255,-9548.656652,-296.082377,1608.800546
1414.203576,-9844.739029,-148.041188,1378.971896
1414.203896,-9622.677246,-518.144159,1532.190996
1414.204217,-9400.615463,-962.267725,1149.143247
1414.204538,-9474.636058,-592.164754,1149.143247
1414.204858,-9770.718434,-592.164754,1149.143247
1414.205179,-9696.697840,-444.123565,1302.362347
1414.205500,-9474.636058,-1110.308913,1149.143247
1414.205820,-9474.636058,-962.267725,766.095498
1414.206141,-9622.677246,-740.205942,612.876398
1414.206462,-9844.739029,-444.123565,1378.971896
1414.206782,-10288.862594,-370.102971,842.705048
1414.207103,-9622.677246,-888.247130,842.705048
1414.207424,-9548.656652,-370.102971,306.438199
1414.207744,-9548.656652,-592.164754,612.876398
1414.208065,-8734.430116,-444.123565,2681.334243
1414.208386,-9696.697840,-962.267725,1378.971896
1414.208706,-9548.656652,-1184.329507,1149.143247
1414.209027,-9770.718434,-1184.329507,1378.971896
1414.209348,-9770.718434,-1406.391290,1915.238745
1414.209668,-9548.656652,-1554.432478,2374.896044
1414.209989,-9326.594869,-1258.350101,1762.019645
1414.210310,-9622.677246,-1406.391290,1991.848295
1414.210630,-9400.615463,-1110.308913,2221.676944
1414.210951,-9622.677246,-814.226536,2221.676944
1414.211272,-9622.677246,-962.267725,2604.724693
1414.211592,-9622.677246,-666.185348,2451.505594
1414.211913,-9548.656652,-1110.308913,2528.115143
1414.212234,-9696.697840,-666.185348,2834.553343
1414.212554,-9844.739029,-1184.329507,3217.601092
1414.212875,-9770.718434,-1628.453072,3677.258390
1414.213196,-9622.677246,-2294.638420,4290.134789
1414.213516,-9548.656652,-3034.844362,3983.696590
1414.213837,-9400.615463,-2960.823768,4749.792088
1414.214158,-9474.636058,-3182.885551,5286.058936
1414.214479,-9548.656652,-3256.906145,5745.716235
1414.214799,-9474.636058,-3404.947333,5745.716235
1414.215120,-8586.388927,-4071.132681,5209.449386
1414.215441,-8956.491898,-4071.132681,5439.278036
1414.215761,-9252.574275,-4663.297435,5745.716235
1414.216082,-9252.574275,-4737.318029,5592.497135
1414.216403,-9030.512492,-4589.276840,4290.134789
1414.216723,-9400.615463,-4737.318029,5439.278036
1414.217044,-9474.636058,-4663.297435,5209.449386
1414.217365,-9326.594869,-4663.297435,5132.839837
1414.217685,-9474.636058,-4071.132681,4596.572988
1414.218006,-9474.636058,-3997.112087,4749.792088
1414.218327,-9474.636058,-3627.009116,4060.306139
1414.218647,-9400.615463,-3478.967927,3907.087040
1414.218968,-9474.636058,-3404.947333,3907.087040
1414.219289,-9992.780217,-2886.803174,3600.648841
1414.219609,-9548.656652,-3849.070898,3907.087040
1414.219930,-9548.656652,-4145.153275,3983.696590
1414.220251,-9474.636058,-4441.235652,3677.258390
1414.220571,-9252.574275,-4737.318029,3217.601092
1414.220892,-9400.615463,-5107.421000,2834.553343
1414.221213,-9252.574275,-5033.400406,2374.896044
1414.221533,-9400.615463,-3997.112087,1532.190996
1414.221854,-9474.636058,-2590.720797,1072.533697
1414.222175,-9622.677246,-1036.288319,459.657299
1414.222495,-9696.697840,-222.061783,536.266849
1414.222816,-10140.821405,0.000000,612.876398
1414.223137,-10288.862594,0.000000,1072.533697
1414.223457,-10807.006753,-1480.411884,2451.505594
1414.223778,-10436.903782,-1850.514855,2451.505594
1414.224099,-10288.862594,-3478.967927,2681.334243
1414.224419,-9696.697840,-5033.400406,2604.724693
1414.224740,-9474.636058,-4959.379811,689.485948
1414.225061,-8808.450710,-4811.338623,2528.115143
1414.225381,-8882.471304,-4293.194464,2911.162892
1414.225702,-8808.450710,-4145.153275,2987.772442
1414.226023,-9252.574275,-3923.091493,2451.505594
1414.226343,-9252.574275,-3775.050304,1455.581446
1414.226664,-9252.574275,-2886.803174,919.314598
1414.226985,-9252.574275,-1554.432478,383.047749
1414.227305,-9474.636058,74.020594,612.876398
1414.227626,-10510.924376,2072.576638,459.657299
1414.227947,-10066.800811,2368.659014,1455.581446
1414.228267,-10362.883188,2220.617826,2757.943793
1414.228588,-10658.965565,444.123565,3294.210641
1414.228909,-10436.903782,-1480.411884,5822.325785
1414.229229,-9696.697840,-3256.906145,4749.792088
1414.229550,-9030.512492,-4441.235652,4903.011187
1414.229871,-8660.409521,-4737.318029,5669.106685
1414.230191,-8660.409521,-4515.256246,6358.592633
1414.230512,-8216.285956,-4663.297435,6358.592633
1414.230833,-8142.265362,-5625.565159,4826.401637
1414.231153,-7846.182985,-4515.256246,3294.210641
1414.231474,-8364.327145,-2442.679609,2374.896044
1414.231795,-9030.512492,444.123565,2757.943793
1414.232115,-9992.780217,2368.659014,3524.039291
1414.232436,-10066.800811,2960.823768,3294.210641
1414.232757,-10732.986159,1776.494261,3370.820191
1414.233077,-11177.109724,740.205942,2911.162892
1414.233398,-11769.274478,-148.041188,4749.792088
1414.233719,-11103.089130,-1480.411884,5745.716235
1414.234040,-10140.821405,-2960.823768,6052.154434
1414.234360,-9548.656652,-5255.462188,5286.058936
1414.234681,-8512.368333,-6809.894666,4366.744339
1414.235002,-8216.285956,-7920.203579,3447.429741
1414.235322,-8216.285956,-6069.688724,3140.991542
1414.235643,-8512.368333,-3775.050304,3294.210641
1414.235964,-8882.471304,-2220.617826,3370.820191
1414.236284,-9326.594869,-814.226536,2987.772442
1414.236605,-9622.677246,-518.144159,2681.334243
1414.236926,-10881.027347,-962.267725,2221.676944
1414.237246,-9326.594869,1776.494261,4596.572988
1414.237567,-11917.315666,-2664.741391,2604.724693
1414.237888,-9474.636058,-2738.761985,1378.971896
1414.238208,-9474.636058,-3701.029710,-1225.752797
1414.238529,-9178.553681,-2368.659014,-1225.752797
1414.238850,-8216.285956,-666.185348,-383.047749
1414.239170,-9622.677246,-1110.308913,1532.190996
1414.239491,-10214.842000,-2442.679609,2604.724693
1414.239812,-8216.285956,-3701.029710,1915.238745
1414.240132,-11325.150913,-4737.318029,4903.011187
1414.240453,-10066.800811,-5477.523971,5898.935335
1414.240774,-10510.924376,-6365.771101,5745.716235
1414.241094,-9474.636058,-6587.832884,4290.134789
1414.241415,-7994.224174,-4885.359217,1608.800546
1414.241736,-9178.553681,-2442.679609,2451.505594
1414.242056,-9548.656652,-2294.638420,2987.772442
1414.242377,-8808.450710,-1628.453072,1915.238745
1414.242698,-8956.491898,-1110.308913,766.095498
1414.243018,-9400.615463,-1036.288319,1991.848295
1414.243339,-10436.903782,-2294.638420,3064.381992
1414.243660,-10066.800811,-4589.276840,3907.087040
1414.243980,-9918.759623,-4959.379811,2987.772442
1414.244301,-9622.677246,-2664.741391,2987.772442
1414.244622,-9474.636058,-2442.679609,4903.011187
1414.244942,-9918.759623,-3256.906145,5209.449386
1414.245263,-8142.265362,-3478.967927,4903.011187
1414.245584,-9326.594869,-4589.276840,2374.896044
1414.245904,-8882.471304,-4737.318029,3217.601092
1414.246225,-8216.285956,-4145.153275,3064.381992
1414.246546,-9474.636058,-2516.700203,3753.867940
1414.246866,-9770.718434,-370.102971,4519.963438
1414.247187,-10584.944971,888.247130,4826.401637
1414.247508,-10214.842000,1184.329507,4673.182538
1414.247828,-10436.903782,-296.082377,4290.134789
1414.248149,-10881.027347,-962.267725,4519.963438
1414.248470,-10807.006753,-2812.782580,3370.820191
1414.248790,-8586.388927,-2812.782580,1685.410096
1414.249111,-8882.471304,-1480.411884,2298.286494
1414.249432,-9474.636058,-1332.370696,4290.134789
1414.249752,-9622.677246,-1924.535449,5209.449386
1414.250073,-9104.533087,-3849.070898,4290.134789
1414.250394,-9696.697840,-4663.297435,3983.696590
1414.250714,-8734.430116,-5181.441594,2911.162892
1414.251035,-9030.512492,-4071.132681,3447.429741
1414.251356,-9178.553681,-3034.844362,3983.696590
1414.251676,-8734.430116,-1850.514855,2757.943793
1414.251997,-8956.491898,-1332.370696,1991.848295
1414.252318,-9696.697840,0.000000,2145.067394
1414.252638,-9918.759623,-1850.514855,1072.533697
1414.252959,-9030.512492,-962.267725,842.705048
1414.253280,-10288.862594,888.247130,1762.019645
1414.253601,-10140.821405,1036.288319,1838.629195
1414.253921,-10288.862594,592.164754,2757.943793
1414.254242,-9474.636058,-1258.350101,3370.820191
1414.254562,-9622.677246,-3849.070898,2145.067394
1414.254883,-9178.553681,-3997.112087,1762.019645
1414.255203,-8808.450710,-2812.782580,2911.162892
1414.255524,-8290.306550,-2738.761985,2757.943793
1414.255844,-8808.450710,-2960.823768,2987.772442
1414.256165,-8290.306550,-3256.906145,3370.820191
1414.256485,-8586.388927,-3478.967927,2221.676944
1414.256806,-9770.718434,-2368.659014,919.314598
1414.257126,-9918.759623,-148.041188,2221.676944
1414.257447,-9918.759623,444.123565,2528.115143
1414.257767,-9548.656652,888.247130,2374.896044
1414.258088,-10436.903782,666.185348,2528.115143
1414.258408,-9918.759623,-1184.329507,2068.457845
1414.258729,-9548.656652,-3404.947333,1225.752797
1414.259049,-10214.842000,-3256.906145,3064.381992
1414.259370,-10066.800811,-3404.947333,3677.258390
1414.259690,-9770.718434,-3330.926739,3677.258390
1414.260011,-9622.677246,-3034.844362,4673.182538
1414.260331,-9548.656652,-4959.379811,3677.258390
1414.260652,-7772.162391,-4959.379811,2451.505594
1414.260972,-9178.553681,-3552.988522,3907.087040
1414.261293,-9992.780217,-2368.659014,4290.134789
1414.261613,-9474.636058,-1998.556043,5362.668486
1414.261934,-10066.800811,-3849.070898,4903.011187
1414.262254,-8512.368333,-3997.112087,3677.258390
1414.262575,-9844.739029,-3034.844362,3064.381992
1414.262895,-11843.295072,-2146.597232,5592.497135
1414.263216,-9252.574275,-2072.576638,4673.182538
1414.263536,-9992.780217,-3627.009116,3294.210641
1414.263857,-9252.574275,-2886.803174,3524.039291
1414.264177,-8808.450710,-2368.659014,2528.115143
1414.264498,-10510.924376,-1776.494261,4213.525239
1414.264818,-9030.512492,-962.267725,4443.353888
1414.265139,-7772.162391,-4219.173869,1685.410096
1414.265459,-8364.327145,-4071.132681,1838.629195
1414.265780,-9104.533087,-3849.070898,3600.648841
1414.266100,-9918.759623,-2886.803174,5209.449386
1414.266421,-11325.150913,-3849.070898,7201.297681
1414.266741,-9844.739029,-3627.009116,5822.325785
1414.267062,-10214.842000,-4737.318029,2298.286494
1414.267382,-8882.471304,-1998.556043,1991.848295
1414.267703,-10214.842000,0.000000,3294.210641
1414.268023,-9326.594869,-962.267725,2757.943793
1414.268344,-7624.121203,-2960.823768,995.924147
1414.268664,-8364.327145,-4219.173869,-1302.362347
1414.268985,-7920.203579,-2590.720797,0.000000
1414.269305,-12435.459826,-2960.823768,3294.210641
1414.269626,-9992.780217,-2368.659014,4290.134789
1414.269946,-8586.388927,-3478.967927,1072.533697
1414.270267,-10732.986159,-2072.576638,-153.219100
1414.270587,-8586.388927,0.000000,459.657299
1414.270908,-11177.109724,518.144159,2757.943793
1414.271228,-11843.295072,-1258.350101,3140.991542
1414.271549,-6661.853478,-1406.391290,1762.019645
1414.271869,-13027.624579,-3923.091493,-612.876398
1414.272190,-8512.368333,-370.102971,1762.019645
1414.272510,-8438.347739,-740.205942,-842.705048
1414.272831,-9992.780217,222.061783,2987.772442
1414.273151,-5551.544565,814.226536,-2298.286494
1414.273472,-10066.800811,-592.164754,-536.266849
1414.273792,-9696.697840,3034.844362,1608.800546
1414.274113,-10510.924376,1850.514855,3447.429741
1414.274433,-12657.521608,-3404.947333,5056.230287
1414.274754,-9400.615463,-3997.112087,1532.190996
1414.275074,-10362.883188,-2368.659014,919.314598
1414.275395,-10732.986159,-740.205942,2757.943793
1414.275715,-9178.553681,-592.164754,3677.258390
1414.276036,-9770.718434,-1628.453072,2374.896044
1414.276356,-8216.285956,-2220.617826,-2221.676944
1414.276677,-8290.306550,592.164754,-1685.410096
1414.276997,-9770.718434,2442.679609,2528.115143
1414.277318,-10732.986159,-592.164754,2911.162892
1414.277638,-9918.759623,1184.329507,3600.648841
1414.277959,-9326.594869,-296.082377,1149.143247
1414.278279,-10436.903782,814.226536,1532.190996
1414.278600,-11029.068536,962.267725,4519.963438
1414.278921,-10288.862594,-1480.411884,3524.039291
1414.279241,-9030.512492,518.144159,1455.581446
1414.279562,-9474.636058,444.123565,1302.362347
1414.279882,-11103.089130,666.185348,3140.991542
1414.280203,-9474.636058,-666.185348,3830.477490
1414.280523,-9918.759623,-2886.803174,2911.162892
1414.280844,-8216.285956,-1628.453072,842.705048
1414.281164,-9400.615463,-1480.411884,0.000000
1414.281485,-9178.553681,1258.350101,536.266849
1414.281805,-7772.162391,1258.350101,-1378.971896
1414.282126,-7105.977043,1480.411884,-3983.696590
1414.282446,-7920.203579,4367.215058,-3600.648841
1414.282767,-9770.718434,4811.338623,0.000000
1414.283087,-11769.274478,1332.370696,4290.134789
1414.283408,-12509.480420,-3108.864956,4596.572988
1414.283728,-11695.253884,-4811.338623,2528.115143
1414.284049,-11621.233289,-3330.926739,1608.800546
1414.284369,-11843.295072,-148.041188,3600.648841
1414.284690,-9770.718434,148.041188,3217.601092
1414.285010,-7105.977043,-1406.391290,-1302.362347
1414.285331,-6513.812290,-1110.308913,-3983.696590
1414.285651,-7698.141797,2146.597232,-2604.724693
1414.285972,-10066.800811,962.267725,383.047749
1414.286292,-10214.842000,-1702.473667,153.219100
1414.286613,-9104.533087,-1184.329507,-383.047749
1414.286933,-9548.656652,-370.102971,-229.828649
1414.287254,-12213.398043,740.205942,1685.410096
1414.287574,-10807.006753,-518.144159,2987.772442
1414.287895,-11251.130318,-2368.659014,76.609550
1414.288215,-8512.368333,1480.411884,-612.876398
1414.288536,-10436.903782,1258.350101,-459.657299
1414.288856,-9252.574275,1480.411884,689.485948
1414.289177,-8882.471304,-2368.659014,229.828649
1414.289497,-8512.368333,-4737.318029,-536.266849
1414.289818,-8734.430116,-3849.070898,76.609550
1414.290138,-9622.677246,-2220.617826,2451.505594
1414.290459,-11695.253884,-4441.235652,3753.867940
1414.290779,-8734.430116,-1406.391290,2451.505594
1414.291100,-9622.677246,-666.185348,1838.629195
1414.291420,-9918.759623,1776.494261,2451.505594
1414.291741,-9770.718434,962.267725,3370.820191
1414.292061,-9992.780217,-1850.514855,1302.362347
1414.292382,-7476.080014,-740.205942,76.609550
1414.292702,-9992.780217,-1258.350101,153.219100
1414.293023,-9992.780217,888.247130,3140.991542
1414.293343,-10658.965565,-1036.288319,3294.210641
1414.293664,-9030.512492,-444.123565,1532.190996
1414.293984,-8956.491898,0.000000,1072.533697
1414.294305,-10955.047942,1998.556043,2911.162892
1414.294625,-10732.986159,-888.247130,4519.963438
1414.294946,-9770.718434,-2368.659014,2221.676944
1414.295266,-8142.265362,-1332.370696,383.047749
1414.295587,-8808.450710,148.041188,612.876398
1414.295907,-10584.944971,0.000000,4060.306139
1414.296228,-9474.636058,-1258.350101,2987.772442
1414.296548,-9326.594869,-888.247130,612.876398
1414.296869,-9622.677246,-518.144159,-76.609550
1414.297189,-9548.656652,1258.350101,1455.581446
1414.297510,-11029.068536,-592.164754,2145.067394
1414.297830,-9770.718434,-296.082377,153.219100
1414.298151,-9474.636058,370.102971,-1302.362347
1414.298471,-9770.718434,1702.473667,-2145.067394
1414.298792,-9474.636058,1924.535449,995.924147
1414.299112,-10955.047942,-1480.411884,0.000000
1414.299433,-8216.285956,-740.205942,-1302.362347
1414.299753,-8956.491898,-740.205942,-2068.457845
1414.300074,-9548.656652,2220.617826,1378.971896
1414.300394,-11103.089130,370.102971,2528.115143
1414.300715,-8882.471304,-296.082377,0.000000
1414.301035,-6809.894666,1554.432478,-1608.800546
1414.301356,-10066.800811,1110.308913,-1532.190996
1414.301676,-8956.491898,1924.535449,2145.067394
1414.301997,-9918.759623,-1924.535449,76.609550
1414.302317,-7920.203579,444.123565,-919.314598
1414.302638,-10140.821405,962.267725,-2068.457845
1414.302958,-10362.883188,3923.091493,2451.505594
1414.303279,-10732.986159,296.082377,3217.601092
1414.303599,-9474.636058,-962.267725,-229.828649
1414.303920,-7328.038826,1036.288319,-1532.190996
1414.304240,-11399.171507,1924.535449,1991.848295
1414.304561,-9474.636058,740.205942,4749.792088
1414.304881,-10955.047942,-3330.926739,3294.210641
1414.305202,-8660.409521,-3330.926739,383.047749
1414.305522,-7179.997637,-1924.535449,-3217.601092
1414.305843,-9622.677246,2146.597232,1072.533697
1414.306163,-8216.285956,2590.720797,2987.772442
1414.306484,-8512.368333,1036.288319,459.657299
1414.306804,-8882.471304,740.205942,0.000000
1414.307125,-8438.347739,592.164754,0.000000
1414.307445,-11251.130318,296.082377,3370.820191
1414.307766,-11991.336260,-1776.494261,4903.011187
1414.308086,-9548.656652,-1036.288319,3140.991542
1414.308407,-10066.800811,-814.226536,1455.581446
1414.308727,-9104.533087,296.082377,2528.115143
1414.309048,-10066.800811,-444.123565,3294.210641
1414.309368,-10881.027347,-1776.494261,2528.115143
1414.309689,-8290.306550,-2812.782580,-153.219100
1414.310009,-8734.430116,-814.226536,-153.219100
1414.310330,-10066.800811,74.020594,3064.381992
1414.310650,-10362.883188,-2960.823768,2374.896044
1414.310971,-8216.285956,-2146.597232,1455.581446
1414.311291,-9474.636058,-2368.659014,-536.266849
1414.311612,-11843.295072,1702.473667,3600.648841
1414.311932,-11547.212695,-888.247130,4290.134789
1414.312253,-11029.068536,-2590.720797,2604.724693
1414.312573,-9104.533087,-888.247130,0.000000
1414.312894,-9326.594869,888.247130,153.219100
1414.313214,-9696.697840,592.164754,1685.410096
1414.313535,-8364.327145,-1554.432478,459.657299
1414.313855,-6883.915261,-2368.659014,-4596.572988
1414.314176,-6513.812290,-1850.514855,-5439.278036
1414.314496,-8068.244768,1924.535449,-2145.067394
1414.314817,-10510.924376,0.000000,2451.505594
1414.315137,-11399.171507,-2294.638420,3907.087040
1414.315458,-11621.233289,-2960.823768,2298.286494
1414.315778,-12139.377449,-296.082377,2221.676944
1414.316099,-12361.439231,-740.205942,4060.306139
1414.316419,-10658.965565,-2072.576638,3907.087040
1414.316740,-6661.853478,-1110.308913,-306.438199
1414.317060,-7254.018232,-1702.473667,-3907.087040
1414.317381,-7031.956449,1406.391290,-2604.724693
1414.317701,-8216.285956,-814.226536,-1378.971896
1414.318022,-9548.656652,-1480.411884,76.609550
1414.318342,-8660.409521,-148.041188,-306.438199
1414.318663,-11399.171507,-1332.370696,1225.752797
1414.318983,-11103.089130,1110.308913,3753.867940
1414.319304,-12361.439231,-1924.535449,5209.449386
1414.319624,-10658.965565,-4071.132681,1608.800546
1414.319945,-8364.327145,-444.123565,459.657299
1414.320265,-9696.697840,370.102971,766.095498
1414.320586,-7920.203579,1628.453072,383.047749
1414.320906,-8956.491898,0.000000,1915.238745
1414.321227,-7254.018232,-1332.370696,-1225.752797
1414.321547,-9178.553681,74.020594,-536.266849
1414.321868,-11473.192101,296.082377,2757.943793
1414.322188,-9770.718434,-1776.494261,2757.943793
1414.322509,-9474.636058,-962.267725,1378.971896
1414.322829,-10955.047942,592.164754,1762.019645
1414.323150,-10214.842000,4071.132681,3294.210641
1414.323470,-12065.356855,2442.679609,4596.572988
1414.323791,-9474.636058,-592.164754,1685.410096
1414.324111,-7254.018232,592.164754,-1915.238745
1414.324432,-9844.739029,0.000000,-306.438199
1414.324752,-9992.780217,1998.556043,4213.525239
1414.325073,-10584.944971,-740.205942,4290.134789
1414.325393,-9992.780217,-4293.194464,1072.533697
1414.325714,-8438.347739,-74.020594,-689.485948
1414.326034,-12139.377449,888.247130,2604.724693
1414.326355,-10658.965565,296.082377,3753.867940
1414.326675,-9474.636058,-666.185348,1455.581446
1414.326996,-8068.244768,148.041188,-1838.629195
1414.327316,-9622.677246,666.185348,-1378.971896
1414.327637,-10510.924376,1776.494261,1302.362347
1414.327957,-9474.636058,-666.185348,1685.410096
1414.328278,-9622.677246,-962.267725,-383.047749
1414.328598,-9104.533087,888.247130,-1378.971896
1414.328919,-10881.027347,2146.597232,-612.876398
1414.329239,-10584.944971,-296.082377,2451.505594
1414.329560,-9252.574275,-1406.391290,229.828649
1414.329880,-9474.636058,-1110.308913,-459.657299
1414.330201,-9326.594869,-222.061783,-689.485948
1414.330521,-9474.636058,-222.061783,689.485948
1414.330842,-9400.615463,-2886.803174,153.219100
1414.331162,-5699.585753,1628.453072,-1378.971896
1414.331483,-10807.006753,370.102971,-689.485948
1414.331803,-9400.615463,2590.720797,2298.286494
1414.332124,-9474.636058,-888.247130,2528.115143
1414.332444,-9474.636058,-3775.050304,612.876398
1414.332765,-8660.409521,-962.267725,-842.705048
1414.333085,-11103.089130,-1406.391290,76.609550
1414.333406,-8882.471304,1184.329507,2145.067394
1414.333726,-9252.574275,-2072.576638,612.876398
1414.334047,-9252.574275,-1036.288319,-383.047749
1414.334367,-8882.471304,962.267725,919.314598
1414.334688,-12805.562797,444.123565,3677.258390
1414.335008,-9104.533087,-666.185348,4443.353888
1414.335329,-9918.759623,-2960.823768,995.924147
1414.335649,-9252.574275,-1850.514855,-612.876398
1414.335970,-8438.347739,888.247130,995.924147
1414.336290,-11399.171507,2294.638420,4443.353888
1414.336611,-9252.574275,-888.247130,3294.210641
1414.336931,-10214.842000,-2368.659014,536.266849
1414.337252,-9770.718434,-1110.308913,1225.752797
1414.337572,-10436.903782,1258.350101,2068.457845
1414.337893,-10510.924376,740.205942,3830.477490
1414.338213,-9252.574275,-1036.288319,1685.410096
1414.338534,-6883.915261,-1110.308913,-842.705048
1414.338854,-8216.285956,74.020594,-842.705048
1414.339175,-9696.697840,296.082377,2911.162892
1414.339495,-10362.883188,-1998.556043,3370.820191
1414.339816,-9548.656652,-1850.514855,766.095498
1414.340136,-9178.553681,-814.226536,995.924147
1414.340457,-11103.089130,222.061783,2911.162892
1414.340777,-10214.842000,-1184.329507,3983.696590
1414.341098,-10066.800811,-2146.597232,1685.410096
1414.341418,-8216.285956,-1110.308913,76.609550
1414.341739,-9474.636058,296.082377,-306.438199
1414.342059,-10214.842000,888.247130,2374.896044
1414.342380,-9252.574275,-1332.370696,76.609550
1414.342700,-8586.388927,-1110.308913,-1302.362347
1414.343021,-8068.244768,0.000000,-2757.943793
1414.343341,-10881.027347,1184.329507,689.485948
1414.343662,-12287.418637,-296.082377,3064.381992
1414.343982,-9918.759623,-1480.411884,1378.971896
1414.344303,-11621.233289,-2072.576638,1225.752797
1414.344623,-9178.553681,0.000000,0.000000
1414.344944,-10214.842000,-962.267725,1915.238745
1414.345264,-8660.409521,-1776.494261,-612.876398
1414.345585,-6587.832884,222.061783,-3524.039291
1414.345905,-5921.647536,370.102971,-5209.449386
1414.346226,-7105.977043,3997.112087,-2911.162892
1414.346546,-9548.656652,962.267725,536.266849
1414.346867,-10510.924376,-1406.391290,2987.772442
1414.347187,-10288.862594,-2516.700203,3140.991542
1414.347508,-13693.809927,-2590.720797,5132.839837
1414.347828,-11843.295072,-2516.700203,5898.935335
1414.348149,-11843.295072,-2812.782580,3677.258390
1414.348469,-7179.997637,-444.123565,1302.362347
1414.348790,-6439.791695,1998.556043,-1915.238745
1414.349110,-7105.977043,4737.318029,-306.438199
1414.349431,-8586.388927,1036.288319,689.485948
1414.349751,-8142.265362,-1258.350101,-1149.143247
1414.350072,-9326.594869,-2220.617826,-766.095498
1414.350392,-10288.862594,-592.164754,1532.190996
1414.350713,-11399.171507,1332.370696,5132.839837
1414.351033,-12953.603985,-888.247130,5669.106685
1414.351354,-10807.006753,-296.082377,3294.210641
1414.351674,-9770.718434,1924.535449,2298.286494
1414.351995,-11177.109724,1702.473667,2834.553343
1414.352315,-9030.512492,518.144159,2298.286494
1414.352636,-8364.327145,-296.082377,1072.533697
1414.352956,-7179.997637,1184.329507,-1149.143247
1414.353277,-8808.450710,2294.638420,612.876398
1414.353597,-10807.006753,814.226536,3753.867940
1414.353918,-10584.944971,-2368.659014,2987.772442
1414.354239,-9696.697840,-2886.803174,919.314598
1414.354560,-9918.759623,-1406.391290,229.828649
1414.354880,-11251.130318,1184.329507,3370.820191
1414.355201,-10288.862594,-222.061783,2911.162892
1414.355522,-8882.471304,-888.247130,612.876398
1414.355842,-7624.121203,-444.123565,-2451.505594
1414.356163,-8438.347739,444.123565,-1762.019645
1414.356484,-10732.986159,444.123565,2221.676944
1414.356804,-9770.718434,-1702.473667,1685.410096
1414.357125,-8290.306550,-1036.288319,-1225.752797
1414.357446,-10584.944971,0.000000,-1149.143247
1414.357766,-10362.883188,2368.659014,1915.238745
1414.358087,-10288.862594,-740.205942,3294.210641
1414.358408,-9030.512492,-2294.638420,76.609550
1414.358728,-7476.080014,-2664.741391,-3447.429741
1414.359049,-8808.450710,-740.205942,-1838.629195
1414.359370,-9844.739029,0.000000,1302.362347
1414.359690,-9030.512492,-1406.391290,1455.581446
1414.360011,-9178.553681,-518.144159,-306.438199
1414.360332,-8882.471304,888.247130,-1762.019645
1414.360652,-10436.903782,3034.844362,1838.629195
1414.360973,-10584.944971,1628.453072,3140.991542
1414.361294,-11177.109724,-1850.514855,2451.505594
1414.361614,-7994.224174,-1554.432478,-766.095498
1414.361935,-10066.800811,-2812.782580,-536.266849
1414.362256,-8290.306550,-518.144159,1225.752797
1414.362577,-10214.842000,-3330.926739,2298.286494
1414.362897,-7772.162391,-518.144159,-842.705048
1414.363218,-9252.574275,1110.308913,0.000000
1414.363539,-10066.800811,1110.308913,1608.800546
1414.363859,-9770.718434,1110.308913,3140.991542
1414.364180,-11325.150913,-2146.597232,2987.772442
1414.364501,-8364.327145,-1332.370696,459.657299
1414.364821,-9326.594869,518.144159,919.314598
1414.365142,-10658.965565,-370.102971,2834.553343
1414.365463,-9622.677246,-1110.308913,2834.553343
1414.365783,-11399.171507,-2812.782580,842.705048
1414.366104,-8586.388927,518.144159,1991.848295
1414.366425,-10807.006753,1184.329507,3064.381992
1414.366745,-12509.480420,1036.288319,6052.154434
1414.367066,-9178.553681,-1776.494261,3677.258390
1414.367387,-9622.677246,-2146.597232,536.266849
1414.367707,-9326.594869,-518.144159,766.095498
1414.368028,-8438.347739,0.000000,1532.190996
1414.368349,-10214.842000,-370.102971,3370.820191
1414.368669,-9030.512492,-1184.329507,1608.800546
1414.368990,-9844.739029,-666.185348,459.657299
1414.369311,-10436.903782,148.041188,2528.115143
1414.369632,-8586.388927,0.000000,1915.238745
1414.369952,-9918.759623,0.000000,1302.362347
1414.370273,-8290.306550,-148.041188,-766.095498
1414.370594,-7994.224174,2812.782580,-1532.190996
1414.370914,-10584.944971,1036.288319,766.095498
1414.371235,-8882.471304,-1480.411884,-306.438199
1414.371556,-8364.327145,-2146.597232,-1302.362347
1414.371876,-10436.903782,-962.267725,-459.657299
1414.372197,-10955.047942,666.185348,1762.019645
1414.372518,-11029.068536,-592.164754,3064.381992
1414.372838,-9548.656652,-1036.288319,1302.362347
1414.373159,-10288.862594,-1332.370696,-842.705048
1414.373480,-9400.615463,1110.308913,536.266849
1414.373800,-9992.780217,-444.123565,1149.143247
1414.374121,-8956.491898,-1776.494261,-383.047749
1414.374442,-7254.018232,-1628.453072,-3524.039291
1414.374762,-9252.574275,888.247130,-1685.410096
1414.375083,-10214.842000,3552.988522,-766.095498
1414.375404,-11621.233289,1184.329507,1838.629195
1414.375724,-11177.109724,0.000000,1378.971896
1414.376045,-9474.636058,-814.226536,76.609550
1414.376366,-13101.645173,-1480.411884,1762.019645
1414.376687,-10807.006753,-148.041188,3907.087040
1414.377007,-9548.656652,-2886.803174,1378.971896
1414.377328,-7105.977043,-2812.782580,-2374.896044
1414.377649,-6809.894666,148.041188,-2451.505594
1414.377969,-6883.915261,814.226536,-2528.115143
1414.378290,-7920.203579,1036.288319,383.047749
1414.378611,-8734.430116,0.000000,536.266849
1414.378931,-9474.636058,-370.102971,1072.533697
1414.379252,-12287.418637,74.020594,4979.620737
1414.379573,-13471.748144,-1036.288319,7507.735880
1414.379893,-11547.212695,-2664.741391,5056.230287
1414.380214,-9474.636058,-1998.556043,2298.286494
1414.380535,-8364.327145,1036.288319,919.314598
1414.380855,-8882.471304,2812.782580,1915.238745
1414.381176,-8734.430116,1258.350101,2451.505594
1414.381497,-7550.100608,0.000000,306.438199
1414.381817,-7254.018232,-1628.453072,-1762.019645
1414.382138,-10510.924376,-888.247130,1455.581446
1414.382459,-10214.842000,0.000000,5132.839837
1414.382779,-11399.171507,-2590.720797,4979.620737
1414.383100,-9992.780217,-1628.453072,2681.334243
1414.383421,-10066.800811,-148.041188,3677.258390
1414.383741,-10881.027347,1036.288319,3677.258390
1414.384062,-9696.697840,-1036.288319,2681.334243
1414.384383,-8808.450710,-1036.288319,306.438199
1414.384704,-7550.100608,-1332.370696,-2451.505594
1414.385024,-8956.491898,444.123565,-1915.238745
1414.385345,-9992.780217,444.123565,2298.286494
1414.385666,-10362.883188,-3182.885551,766.095498
1414.385986,-9474.636058,-1776.494261,-842.705048
1414.386307,-10510.924376,592.164754,76.609550
1414.386628,-12139.377449,2886.803174,2757.943793
1414.386948,-12139.377449,148.041188,4060.306139
1414.387269,-9178.553681,-1998.556043,612.876398
1414.387590,-7031.956449,-1850.514855,-2604.724693
1414.387910,-8660.409521,148.041188,-2068.457845
1414.388231,-9474.636058,814.226536,1302.362347
1414.388552,-9696.697840,-592.164754,995.924147
1414.388872,-8364.327145,-1110.308913,-1455.581446
1414.389193,-8438.347739,518.144159,-2068.457845
1414.389514,-11399.171507,2220.617826,1455.581446
1414.389834,-11473.192101,148.041188,2374.896044
1414.390155,-9474.636058,222.061783,1915.238745
1414.390476,-9622.677246,-3478.967927,-1762.019645
1414.390796,-7402.059420,1480.411884,-1072.533697
1414.391117,-11251.130318,-1702.473667,2145.067394
1414.391438,-8438.347739,-1184.329507,536.266849
1414.391759,-9474.636058,-814.226536,383.047749
1414.392079,-8586.388927,1776.494261,-766.095498
1414.392400,-11029.068536,3404.947333,2911.162892
1414.392721,-10214.842000,222.061783,2911.162892
1414.393041,-9696.697840,-2294.638420,2374.896044
1414.393362,-8142.265362,-3034.844362,-1225.752797
1414.393683,-9326.594869,-962.267725,1378.971896
1414.394003,-9918.759623,-1184.329507,2757.943793
1414.394324,-9844.739029,-1480.411884,2374.896044
1414.394645,-8142.265362,-740.205942,229.828649
1414.394965,-8734.430116,1184.329507,229.828649
1414.395286,-9326.594869,2960.823768,3294.210641
1414.395607,-12361.439231,-222.061783,4136.915689
1414.395927,-9992.780217,148.041188,2451.505594
1414.396248,-9252.574275,-1406.391290,1072.533697
1414.396569,-9400.615463,1036.288319,1838.629195
1414.396889,-10214.842000,-148.041188,3064.381992
1414.397210,-9770.718434,-148.041188,2911.162892
1414.397531,-8734.430116,-1184.329507,1685.410096
1414.397851,-8660.409521,-2146.597232,689.485948
1414.398172,-10955.047942,1480.411884,4673.182538
1414.398493,-12953.603985,-3330.926739,2987.772442
1414.398813,-8142.265362,74.020594,3447.429741
1414.399134,-10066.800811,-1480.411884,-612.876398
1414.399455,-9030.512492,1998.556043,1149.143247
1414.399776,-10214.842000,-148.041188,1762.019645
1414.400096,-10214.842000,-1110.308913,-766.095498
1414.400417,-7772.162391,-1110.308913,-383.047749
1414.400738,-10584.944971,-1480.411884,306.438199
1414.401058,-11843.295072,222.061783,2911.162892
1414.401379,-10214.842000,-1554.432478,1378.971896
1414.401700,-8660.409521,-2516.700203,-689.485948
1414.402020,-7179.997637,444.123565,-2757.943793
1414.402341,-9474.636058,962.267725,-1608.800546
1414.402662,-9474.636058,296.082377,-306.438199
1414.402982,-8216.285956,0.000000,-1455.581446
1414.403303,-8586.388927,-1850.514855,-2757.943793
1414.403624,-8290.306550,-518.144159,-2221.676944
1414.403944,-10436.903782,-296.082377,1838.629195
1414.404265,-11177.109724,-1258.350101,1302.362347
1414.404586,-10881.027347,-592.164754,2451.505594
1414.404906,-8956.491898,-962.267725,-612.876398
1414.405227,-9696.697840,296.082377,1149.143247
1414.405548,-10436.903782,-814.226536,2068.457845
1414.405868,-9548.656652,-2220.617826,612.876398
1414.406189,-7105.977043,-1036.288319,-2298.286494
1414.406510,-9178.553681,148.041188,-2298.286494
1414.406831,-8882.471304,1628.453072,919.314598
1414.407151,-11843.295072,-222.061783,1762.019645
1414.407472,-10955.047942,-1110.308913,1685.410096
1414.407793,-8660.409521,888.247130,306.438199
1414.408113,-12361.439231,0.000000,2911.162892
1414.408434,-10436.903782,370.102971,5439.278036
1414.408755,-10066.800811,-1480.411884,2451.505594
1414.409075,-7698.141797,-1184.329507,-919.314598
1414.409396,-6957.935855,888.247130,-1072.533697
1414.409717,-8882.471304,1258.350101,1225.752797
1414.410037,-8586.388927,518.144159,2374.896044
1414.410358,-8660.409521,962.267725,612.876398
1414.410679,-9400.615463,1628.453072,229.828649
1414.410999,-10214.842000,2294.638420,3370.820191
1414.411320,-11991.336260,222.061783,8350.440928
1414.411641,-12139.377449,-4441.235652,6511.811733
1414.411961,-10140.821405,-3182.885551,3677.258390
1414.412282,-9918.759623,-1702.473667,1685.410096
1414.412603,-10436.903782,2812.782580,3370.820191
1414.412923,-9474.636058,962.267725,3524.039291
1414.413244,-7550.100608,74.020594,-76.609550
1414.413565,-7105.977043,0.000000,-2451.505594
1414.413885,-9104.533087,0.000000,-1762.019645
1414.414206,-9474.636058,-296.082377,2451.505594
1414.414527,-11251.130318,-4219.173869,2374.896044
1414.414848,-9252.574275,-2072.576638,689.485948
1414.415168,-9770.718434,-296.082377,229.828649
1414.415489,-12287.418637,4071.132681,2145.067394
1414.415810,-10732.986159,1776.494261,3064.381992
1414.416130,-11103.089130,444.123565,1991.848295
1414.416451,-8586.388927,-888.247130,-1608.800546
1414.416772,-7698.141797,74.020594,-3677.258390
1414.417092,-9252.574275,-962.267725,-383.047749
1414.417413,-9030.512492,-1480.411884,-383.047749
1414.417734,-8882.471304,-370.102971,-536.266849
1414.418054,-9104.533087,666.185348,-766.095498
1414.418375,-9918.759623,1036.288319,459.657299
1414.418696,-10066.800811,-1702.473667,842.705048
1414.419016,-10066.800811,-666.185348,1532.190996
1414.419337,-10362.883188,-1776.494261,-153.219100
1414.419658,-8512.368333,1702.473667,842.705048
1414.419978,-9844.739029,-1850.514855,1838.629195
1414.420299,-7328.038826,-2294.638420,-1149.143247
1414.420620,-9252.574275,-2146.597232,-1149.143247
1414.420940,-9992.780217,1036.288319,-76.609550
1414.421261,-9474.636058,2886.803174,3140.991542
1414.421582,-12509.480420,-1332.370696,2987.772442
1414.421903,-8438.347739,-1628.453072,1225.752797
1414.422223,-9104.533087,-1850.514855,-306.438199
1414.422544,-9918.759623,148.041188,2298.286494
1414.422865,-9474.636058,-148.041188,3907.087040
1414.423185,-10066.800811,-3256.906145,1991.848295
1414.423506,-8142.265362,-1998.556043,0.000000
1414.423827,-9400.615463,0.000000,0.000000
1414.424147,-9696.697840,3775.050304,4136.915689
1414.424468,-11769.274478,370.102971,4979.620737
1414.424789,-10584.944971,-814.226536,2757.943793
1414.425109,-9622.677246,-1110.308913,1762.019645
1414.425430,-9918.759623,-592.164754,995.924147
1414.425751,-10288.862594,-370.102971,4366.744339
1414.426071,-10658.965565,-3627.009116,2451.505594
1414.426392,-7624.121203,-962.267725,153.219100
1414.426713,-8142.265362,740.205942,-689.485948
1414.427033,-10140.821405,3108.864956,2681.334243
1414.427354,-10066.800811,814.226536,4596.572988
1414.427675,-10066.800811,-2590.720797,2068.457845
1414.427995,-7772.162391,-2516.700203,0.000000
1414.428316,-10066.800811,-962.267725,842.705048
1414.428637,-10955.047942,-222.061783,2298.286494
1414.428957,-8734.430116,-1258.350101,383.047749
1414.429278,-9178.553681,1628.453072,-153.219100
1414.429599,-10436.903782,1850.514855,459.657299
1414.429920,-10807.006753,592.164754,3294.210641
1414.430240,-12287.418637,-1406.391290,4136.915689
1414.430561,-9696.697840,-1924.535449,1225.752797
1414.430882,-9918.759623,-1850.514855,-766.095498
1414.431202,-8882.471304,2146.597232,1149.143247
1414.431523,-9770.718434,-222.061783,459.657299
1414.431844,-7105.977043,-962.267725,-1608.800546
1414.432164,-7476.080014,-2442.679609,-3447.429741
1414.432485,-8512.368333,0.000000,-3140.991542
1414.432806,-11103.089130,3552.988522,3370.820191
1414.433126,-12805.562797,-592.164754,4903.011187
1414.433447,-11473.192101,-1406.391290,4136.915689
1414.433768,-10955.047942,-3404.947333,229.828649
1414.434088,-9548.656652,-1406.391290,-1378.971896
1414.434409,-8438.347739,0.000000,-459.657299
1414.434730,-8586.388927,-1258.350101,76.609550
1414.435050,-6439.791695,814.226536,-3830.477490
1414.435371,-7402.059420,2072.576638,-4060.306139
1414.435692,-10288.862594,1184.329507,0.000000
1414.436012,-9548.656652,-148.041188,1225.752797
1414.436333,-11621.233289,-1110.308913,1532.190996
1414.436654,-10436.903782,-666.185348,1685.410096
1414.436975,-11843.295072,518.144159,3907.087040
1414.437295,-12509.480420,-1258.350101,5669.106685
1414.437616,-9844.739029,-3256.906145,2374.896044
1414.437937,-7698.141797,-2442.679609,-1302.362347
1414.438257,-7920.203579,962.267725,-1991.848295
1414.438578,-9696.697840,3997.112087,1685.410096
1414.438899,-9326.594869,1480.411884,2145.067394
1414.439219,-9104.533087,0.000000,536.266849
1414.439540,-9548.656652,-962.267725,0.000000
1414.439861,-11473.192101,-222.061783,2374.896044
1414.440181,-12361.439231,592.164754,6818.249932
1414.440502,-12805.562797,-1480.411884,6588.421283
1414.440823,-9400.615463,-1258.350101,2681.334243
1414.441143,-9104.533087,-666.185348,229.828649
1414.441464,-7994.224174,1258.350101,229.828649
1414.441785,-7920.203579,1036.288319,76.609550
1414.442105,-7105.977043,1036.288319,-1762.019645
1414.442426,-6513.812290,-1406.391290,-3370.820191
1414.442747,-7105.977043,-1332.370696,-1915.238745
1414.443067,-11103.089130,-1406.391290,2528.115143
1414.443388,-13323.706956,-3627.009116,5975.544884
1414.443709,-11695.253884,-3627.009116,4749.792088
1414.444030,-11251.130318,-1036.288319,2834.553343
1414.444350,-11843.295072,2294.638420,3600.648841
1414.444671,-10807.006753,888.247130,2681.334243
1414.444992,-7846.182985,814.226536,-153.219100
1414.445312,-6957.935855,0.000000,-3064.381992
1414.445633,-6365.771101,370.102971,-3064.381992
1414.445954,-8586.388927,-2368.659014,-1915.238745
1414.446274,-7105.977043,-1332.370696,-2145.067394
1414.446595,-9178.553681,148.041188,-153.219100
1414.446916,-11177.109724,1554.432478,1455.581446
1414.447236,-9474.636058,2442.679609,4443.353888
1414.447557,-12879.583391,-740.205942,4290.134789
1414.447878,-12287.418637,-2442.679609,2451.505594
1414.448198,-5847.626942,-2072.576638,-1378.971896
1414.448519,-11325.150913,-740.205942,1915.238745
1414.448840,-5773.606348,-444.123565,76.609550
1414.449160,-9548.656652,-2442.679609,-995.924147
1414.449481,-7031.956449,-814.226536,-1149.143247
1414.449802,-8438.347739,1850.514855,-2451.505594
1414.450122,-13693.809927,2960.823768,4903.011187
1414.450443,-10584.944971,148.041188,3753.867940
1414.450764,-10066.800811,-1110.308913,383.047749
1414.451084,-10807.006753,-1332.370696,-383.047749
1414.451405,-9696.697840,296.082377,383.047749
1414.451726,-8956.491898,-888.247130,2681.334243
1414.452047,-10288.862594,-3330.926739,1225.752797
1414.452367,-6883.915261,-444.123565,-1225.752797
1414.452688,-9178.553681,814.226536,-766.095498
1414.453009,-10214.842000,2960.823768,2451.505594
1414.453329,-12065.356855,74.020594,4060.306139
1414.453650,-9622.677246,-666.185348,1838.629195
1414.453971,-9252.574275,-1628.453072,-1072.533697
1414.454291,-9548.656652,0.000000,1532.190996
1414.454612,-10658.965565,-1332.370696,2834.553343
1414.454933,-10436.903782,-2590.720797,1915.238745
1414.455253,-7698.141797,370.102971,-153.219100
1414.455574,-9104.533087,592.164754,-766.095498
1414.455895,-11103.089130,1998.556043,2604.724693
1414.456215,-9474.636058,0.000000,2681.334243
1414.456536,-9992.780217,-1332.370696,919.314598
1414.456857,-9474.636058,-1332.370696,0.000000
1414.457177,-8956.491898,1036.288319,1455.581446
1414.457498,-10955.047942,-666.185348,2757.943793
1414.457819,-9104.533087,-2220.617826,1378.971896
1414.458139,-7550.100608,-962.267725,-383.047749
1414.458460,-8660.409521,-1332.370696,0.000000
1414.458781,-9474.636058,1184.329507,1762.019645
1414.459101,-9474.636058,-1110.308913,1532.190996
1414.459422,-8364.327145,148.041188,919.314598
1414.459743,-9178.553681,518.144159,1072.533697
1414.460063,-10807.006753,1776.494261,1762.019645
1414.460384,-10955.047942,0.000000,3524.039291
1414.460705,-9622.677246,-3330.926739,1302.362347
1414.461025,-7624.121203,-2442.679609,-2068.457845
1414.461346,-9326.594869,-148.041188,-1532.190996
1414.461666,-9474.636058,2368.659014,1378.971896
1414.461987,-9770.718434,1628.453072,1991.848295
1414.462308,-10436.903782,-148.041188,1455.581446
1414.462628,-8142.265362,-666.185348,-612.876398
1414.462949,-11473.192101,-1776.494261,229.828649
1414.463270,-10214.842000,-518.144159,3677.258390
1414.463590,-11991.336260,-3330.926739,2068.457845
1414.463911,-8216.285956,0.000000,1302.362347
1414.464232,-9400.615463,-1036.288319,-919.314598
1414.464552,-9844.739029,2368.659014,1991.848295
1414.464873,-10436.903782,-1628.453072,2068.457845
1414.465194,-8290.306550,-296.082377,459.657299
1414.465514,-10362.883188,888.247130,1915.238745
1414.465835,-11325.150913,-370.102971,2451.505594
1414.466156,-11103.089130,0.000000,5132.839837
1414.466476,-11177.109724,-3701.029710,1532.190996
1414.466797,-6735.874072,-1406.391290,-2068.457845
1414.467118,-8882.471304,222.061783,-842.705048
1414.467438,-8586.388927,3034.844362,1455.581446
1414.467759,-9918.759623,1924.535449,2221.676944
1414.468080,-8882.471304,370.102971,-536.266849
1414.468400,-7254.018232,-1184.329507,-689.485948
1414.468721,-11547.212695,-1406.391290,1838.629195
1414.469042,-11399.171507,-518.144159,5898.935335
1414.469362,-10584.944971,-2442.679609,4673.182538
1414.469683,-9474.636058,-1998.556043,2604.724693
1414.470003,-7624.121203,-222.061783,-306.438199
1414.470324,-9844.739029,1406.391290,1149.143247
1414.470645,-8956.491898,444.123565,1685.410096
1414.470965,-7179.997637,1184.329507,-306.438199
1414.471286,-8364.327145,-518.144159,-2298.286494
1414.471607,-8364.327145,888.247130,-1608.800546
1414.471927,-11251.130318,222.061783,2451.505594
1414.472248,-11769.274478,-2590.720797,3524.039291
1414.472569,-9918.759623,-1850.514855,1915.238745
1414.472889,-9104.533087,296.082377,76.609550
1414.473210,-7698.141797,222.061783,1149.143247
1414.473531,-11769.274478,1628.453072,383.047749
1414.473851,-9622.677246,1036.288319,-612.876398
1414.474172,-7254.018232,592.164754,-2451.505594
1414.474493,-7254.018232,814.226536,-2374.896044
1414.474813,-8364.327145,0.000000,0.000000
1414.475134,-10732.986159,-3478.967927,842.705048
1414.475455,-8808.450710,-296.082377,-306.438199
1414.475775,-10807.006753,222.061783,0.000000
1414.476096,-10362.883188,3775.050304,3907.087040
1414.476417,-11621.233289,-370.102971,3447.429741
1414.476737,-11547.212695,-148.041188,2068.457845
1414.477058,-8290.306550,444.123565,383.047749
1414.477378,-10066.800811,-592.164754,383.047749
1414.477699,-10288.862594,296.082377,3294.210641
1414.478020,-9770.718434,-2220.617826,919.314598
1414.478340,-7994.224174,-2146.597232,-1149.143247
1414.478661,-7550.100608,1480.411884,-459.657299
1414.478982,-10732.986159,1406.391290,2681.334243
1414.479302,-8438.347739,-888.247130,2681.334243
1414.479623,-10214.842000,-888.247130,1455.581446
1414.479944,-8734.430116,-1480.411884,229.828649
1414.480264,-9474.636058,296.082377,1532.190996
1414.480585,-10584.944971,666.185348,3370.820191
1414.480906,-9696.697840,-888.247130,2987.772442
1414.481226,-8808.450710,-1258.350101,995.924147
1414.481547,-9178.553681,518.144159,536.266849
1414.481868,-9918.759623,74.020594,2145.067394
1414.482188,-9178.553681,-666.185348,1915.238745
1414.482509,-9696.697840,370.102971,1991.848295
1414.482830,-9992.780217,74.020594,689.485948
1414.483150,-9178.553681,814.226536,1072.533697
1414.483471,-9400.615463,-1480.411884,3830.477490
1414.483792,-9548.656652,-3552.988522,1149.143247
1414.484112,-9178.553681,-1702.473667,459.657299
1414.484433,-9770.718434,148.041188,536.266849
1414.484753,-9770.718434,3404.947333,4903.011187
1414.485074,-9844.739029,518.144159,2834.553343
1414.485395,-9770.718434,-1332.370696,1378.971896
1414.485715,-8142.265362,-1036.288319,-536.266849
1414.486036,-10066.800811,-592.164754,153.219100
1414.486357,-11029.068536,-592.164754,2604.724693
1414.486677,-9844.739029,-1776.494261,995.924147
1414.486998,-8364.327145,-1258.350101,-459.657299
1414.487319,-8808.450710,-148.041188,-1532.190996
1414.487639,-9178.553681,2368.659014,-153.219100
1414.487960,-9474.636058,-1036.288319,-383.047749
1414.488281,-8290.306550,-592.164754,-1378.971896
1414.488601,-9474.636058,518.144159,-306.438199
1414.488922,-11843.295072,370.102971,2451.505594
1414.489243,-11843.295072,-740.205942,4673.182538
1414.489563,-11473.192101,-3849.070898,1991.848295
1414.489884,-8956.491898,-3182.885551,-229.828649
1414.490205,-9326.594869,-1184.329507,-536.266849
1414.490525,-9252.574275,1036.288319,612.876398
1414.490846,-8438.347739,-444.123565,459.657299
1414.491167,-7476.080014,0.000000,-1762.019645
1414.491487,-8290.306550,-1332.370696,-2298.286494
1414.491808,-10658.965565,222.061783,459.657299
1414.492129,-11769.274478,-888.247130,2911.162892
1414.492449,-10658.965565,-1628.453072,2681.334243
1414.492770,-9400.615463,-1702.473667,842.705048
1414.493090,-9622.677246,-740.205942,0.000000
1414.493411,-10658.965565,814.226536,3140.991542
1414.493732,-9696.697840,-592.164754,2834.553343
1414.494052,-8882.471304,-740.205942,612.876398
1414.494373,-7994.224174,-1332.370696,-995.924147
1414.494694,-8808.450710,962.267725,229.828649
1414.495014,-10288.862594,1184.329507,2911.162892
1414.495335,-10140.821405,-1480.411884,995.924147
1414.495656,-6661.853478,370.102971,459.657299
1414.495976,-10658.965565,-740.205942,0.000000
1414.496297,-10066.800811,1480.411884,3140.991542
1414.496618,-12435.459826,-962.267725,5286.058936
1414.496938,-9992.780217,-1258.350101,2374.896044
1414.497259,-8142.265362,814.226536,306.438199
1414.497580,-10732.986159,1998.556043,2451.505594
1414.497900,-9622.677246,814.226536,4673.182538
1414.498221,-9918.759623,-2368.659014,2528.115143
1414.498542,-8882.471304,-2812.782580,-459.657299
1414.498862,-8142.265362,-296.082377,-536.266849
1414.499183,-9918.759623,1110.308913,766.095498
1414.499504,-9770.718434,1406.391290,2911.162892
1414.499824,-9474.636058,1110.308913,766.095498
1414.500145,-8808.450710,-222.061783,-1302.362347
1414.500465,-9918.759623,-1332.370696,-995.924147
1414.500786,-10955.047942,-2516.700203,2374.896044
1414.501107,-11029.068536,-4071.132681,2451.505594
1414.501427,-9474.636058,-1998.556043,383.047749
1414.501748,-8808.450710,444.123565,0.000000
1414.502069,-9696.697840,2442.679609,842.705048
1414.502389,-10807.006753,1480.411884,1762.019645
1414.502710,-8956.491898,1332.370696,-383.047749
1414.503031,-9474.636058,888.247130,-1915.238745
1414.503351,-10955.047942,1480.411884,-766.095498
1414.503672,-9622.677246,-518.144159,383.047749
1414.503993,-9770.718434,-2072.576638,153.219100
1414.504313,-8734.430116,-1258.350101,0.000000
1414.504634,-9770.718434,1554.432478,0.000000
1414.504955,-11621.233289,1702.473667,2451.505594
1414.505275,-9400.615463,74.020594,1302.362347
1414.505596,-9474.636058,296.082377,153.219100
1414.505917,-9474.636058,-666.185348,-995.924147
1414.506237,-7476.080014,1998.556043,-383.047749
1414.506558,-9548.656652,444.123565,1532.190996
1414.506879,-8438.347739,-3182.885551,-383.047749
1414.507199,-6661.853478,-518.144159,-536.266849
1414.507520,-9326.594869,-888.247130,0.000000
1414.507841,-9104.533087,3849.070898,2528.115143
1414.508161,-11473.192101,1332.370696,4596.572988
1414.508482,-10288.862594,-1036.288319,3524.039291
1414.508802,-9844.739029,-1850.514855,2298.286494
1414.509123,-10140.821405,-1036.288319,2757.943793
1414.509444,-9400.615463,-2220.617826,3753.867940
1414.509764,-9844.739029,-2442.679609,2451.505594
1414.510085,-7402.059420,-1036.288319,459.657299
1414.510406,-7846.182985,370.102971,76.609550
1414.510726,-8808.450710,2368.659014,2451.505594
1414.511047,-9918.759623,-1628.453072,2528.115143
1414.511368,-8808.450710,-2220.617826,1762.019645
1414.511688,-9474.636058,-1406.391290,-842.705048
1414.512009,-11177.109724,-370.102971,2451.505594
1414.512330,-10881.027347,-148.041188,5515.887586
1414.512650,-9178.553681,-3256.906145,1455.581446
1414.512971,-7476.080014,666.185348,1149.143247
1414.513292,-11769.274478,2368.659014,612.876398
1414.513612,-9770.718434,3404.947333,3907.087040
1414.513933,-10510.924376,-740.205942,3217.601092
1414.514254,-10140.821405,-2960.823768,766.095498
1414.514574,-7328.038826,-3701.029710,-2911.162892
1414.514895,-9918.759623,0.000000,536.266849
1414.515216,-10732.986159,0.000000,3524.039291
1414.515536,-10436.903782,-1628.453072,919.314598
1414.515857,-8734.430116,-148.041188,1302.362347
1414.516177,-8438.347739,-444.123565,-3217.601092
1414.516498,-10807.006753,3775.050304,536.266849
1414.516819,-12435.459826,222.061783,3140.991542
1414.517139,-7772.162391,-1258.350101,-153.219100
1414.517460,-9474.636058,-1850.514855,-2221.676944
1414.517781,-9104.533087,-370.102971,-612.876398
1414.518101,-9844.739029,-1850.514855,1072.533697
1414.518422,-11251.130318,-1406.391290,1302.362347
1414.518743,-9622.677246,-592.164754,-536.266849
1414.519063,-8364.327145,814.226536,-1455.581446
1414.519384,-9178.553681,1628.453072,306.438199
1414.519705,-9030.512492,-2590.720797,-459.657299
1414.520025,-6809.894666,-2072.576638,-1072.533697
1414.520346,-7402.059420,-1702.473667,-2451.505594
1414.520667,-10288.862594,1258.350101,995.924147
1414.520987,-11695.253884,1554.432478,4596.572988
1414.521308,-12287.418637,-1776.494261,5669.106685
1414.521629,-9844.739029,-1776.494261,2528.115143
1414.521949,-11843.295072,-1628.453072,1532.190996
1414.522270,-9844.739029,1628.453072,3753.867940
1414.522591,-10140.821405,-1332.370696,2681.334243
1414.522911,-6661.853478,-1480.411884,-459.657299
1414.523232,-6883.915261,-148.041188,-1915.238745
1414.523553,-7994.224174,592.164754,-612.876398
1414.523873,-9178.553681,962.267725,2374.896044
1414.524194,-11251.130318,-1702.473667,2451.505594
1414.524514,-9622.677246,-888.247130,1838.629195
1414.524835,-10140.821405,592.164754,1608.800546
1414.525156,-11695.253884,1554.432478,5592.497135
1414.525476,-10807.006753,1036.288319,6435.202183
1414.525797,-10807.006753,-666.185348,2911.162892
1414.526118,-8734.430116,-370.102971,842.705048
1414.526438,-8956.491898,1480.411884,1762.019645
1414.526759,-10436.903782,-148.041188,2987.772442
1414.527080,-9474.636058,-1184.329507,1685.410096
1414.527400,-7994.224174,0.000000,-383.047749
1414.527721,-9992.780217,0.000000,766.095498
1414.528042,-9622.677246,1406.391290,3294.210641
1414.528362,-11177.109724,-1850.514855,4213.525239
1414.528683,-9548.656652,-2442.679609,689.485948
1414.529004,-9474.636058,370.102971,153.219100
1414.529324,-9918.759623,1702.473667,919.314598
1414.529645,-10066.800811,1480.411884,3677.258390
1414.529966,-10658.965565,-1924.535449,1378.971896
1414.530286,-7402.059420,-2516.700203,-1532.190996
1414.530607,-9400.615463,-1554.432478,-1915.238745
1414.530928,-10510.924376,1110.308913,536.266849
1414.531248,-9252.574275,0.000000,-459.657299
1414.531569,-8808.450710,592.164754,-1762.019645
1414.531889,-6809.894666,3627.009116,-2834.553343
1414.532210,-10510.924376,1924.535449,-1378.971896
1414.532531,-11103.089130,-1036.288319,612.876398
1414.532851,-8956.491898,-3627.009116,-995.924147
1414.533172,-10066.800811,-3108.864956,-1455.581446
1414.533493,-9770.718434,222.061783,0.000000
1414.533813,-9252.574275,2146.597232,3830.477490
1414.534134,-10807.006753,74.020594,2221.676944
1414.534455,-9178.553681,148.041188,-459.657299
1414.534775,-7994.224174,592.164754,-1532.190996
1414.535096,-10362.883188,-296.082377,0.000000
1414.535417,-9696.697840,-740.205942,1532.190996
1414.535737,-9918.759623,-2442.679609,1149.143247
1414.536058,-8216.285956,-3849.070898,-153.219100
1414.536379,-8808.450710,444.123565,76.609550
1414.536699,-11473.192101,-148.041188,4979.620737
1414.537020,-9178.553681,-296.082377,2834.553343
1414.537341,-11769.274478,444.123565,2757.943793
1414.537661,-9326.594869,0.000000,1455.581446
1414.537982,-9104.533087,0.000000,1072.533697
1414.538303,-9548.656652,-222.061783,2298.286494
1414.538623,-8438.347739,-2590.720797,229.828649
1414.538944,-6661.853478,-1036.288319,-1225.752797
1414.539265,-8438.347739,666.185348,306.438199
1414.539585,-9400.615463,1702.473667,2451.505594
1414.539906,-11843.295072,222.061783,5056.230287
1414.540226,-11399.171507,-1998.556043,3753.867940
1414.540547,-10584.944971,-1554.432478,2374.896044
1414.540868,-10214.842000,1554.432478,5515.887586
1414.541188,-10436.903782,-444.123565,4903.011187
1414.541509,-9474.636058,-1036.288319,2528.115143
1414.541830,-7550.100608,-962.267725,-229.828649
1414.542150,-7179.997637,1110.308913,-2374.896044
1414.542471,-8290.306550,2960.823768,1838.629195
1414.542792,-10584.944971,-1554.432478,2145.067394
1414.543112,-10510.924376,-1924.535449,2068.457845
1414.543433,-9696.697840,-2072.576638,689.485948
1414.543754,-10214.842000,-1036.288319,1378.971896
1414.544074,-11251.130318,0.000000,5209.449386
1414.544395,-11769.274478,-2072.576638,2987.772442
1414.544716,-7994.224174,-1480.411884,-306.438199
1414.545036,-8512.368333,296.082377,-2528.115143
1414.545357,-8734.430116,888.247130,-689.485948
1414.545678,-9178.553681,-666.185348,-306.438199
1414.545998,-9474.636058,0.000000,-306.438199
1414.546319,-8290.306550,-518.144159,-1915.238745
1414.546640,-9548.656652,1332.370696,153.219100
1414.546960,-11103.089130,-592.164754,2987.772442
1414.547281,-11769.274478,-2664.741391,1685.410096
1414.547601,-9474.636058,0.000000,0.000000
1414.547922,-10584.944971,148.041188,-612.876398
1414.548243,-8586.388927,740.205942,-306.438199
1414.548563,-8438.347739,444.123565,-536.266849
1414.548884,-8882.471304,222.061783,-1378.971896
1414.549205,-7402.059420,2516.700203,-459.657299
1414.549525,-10436.903782,1036.288319,995.924147
1414.549846,-9474.636058,-1776.494261,612.876398
1414.550167,-9844.739029,-1554.432478,76.609550
1414.550487,-11103.089130,-888.247130,995.924147
1414.550808,-10288.862594,1110.308913,2374.896044
1414.551129,-9622.677246,1998.556043,2987.772442
1414.551449,-9918.759623,-814.226536,2451.505594
1414.551770,-9326.594869,-1924.535449,-766.095498
1414.552091,-8660.409521,0.000000,-306.438199
1414.552411,-8512.368333,1480.411884,842.705048
1414.552732,-9178.553681,296.082377,2528.115143
1414.553053,-10288.862594,-1406.391290,1532.190996
1414.553373,-8586.388927,-592.164754,1072.533697
1414.553694,-10362.883188,148.041188,1838.629195
1414.554015,-10955.047942,2220.617826,4903.011187
1414.554335,-10510.924376,-518.144159,4903.011187
1414.554656,-9474.636058,-1406.391290,2145.067394
1414.554977,-8068.244768,-888.247130,306.438199
1414.555297,-8438.347739,370.102971,2145.067394
1414.555618,-8734.430116,-444.123565,2298.286494
1414.555939,-8882.471304,-740.205942,1225.752797
1414.556259,-8586.388927,0.000000,1915.238745
1414.556580,-10140.821405,1406.391290,3217.601092
1414.556901,-12509.480420,1110.308913,6358.592633
1414.557222,-11843.295072,-2442.679609,6205.373534
1414.557543,-10436.903782,-2294.638420,3370.820191
1414.557864,-9030.512492,-1406.391290,383.047749
1414.558184,-9622.677246,518.144159,1149.143247
1414.558505,-9252.574275,-888.247130,1762.019645
1414.558826,-7254.018232,-3330.926739,-1072.533697
1414.559147,-7698.141797,-1850.514855,-2911.162892
1414.559468,-9252.574275,-370.102971,-1685.410096
1414.559788,-10658.965565,1776.494261,689.485948
1414.560109,-10881.027347,1554.432478,2987.772442
1414.560430,-10436.903782,518.144159,76.609550
1414.560751,-10066.800811,-222.061783,-612.876398
1414.561072,-11695.253884,-518.144159,383.047749
1414.561392,-9622.677246,-1998.556043,1225.752797
1414.561713,-8734.430116,-3627.009116,-2451.505594
1414.562034,-8364.327145,148.041188,-1532.190996
1414.562355,-9992.780217,1332.370696,0.000000
1414.562676,-10955.047942,1406.391290,2834.553343
1414.562997,-10288.862594,-2072.576638,1685.410096
1414.563317,-8142.265362,-1480.411884,-2145.067394
1414.563638,-10140.821405,-1184.329507,-2757.943793
1414.563959,-8438.347739,2960.823768,153.219100
1414.564280,-9770.718434,518.144159,1915.238745
1414.564601,-9696.697840,-962.267725,-536.266849
1414.564921,-7328.038826,-1332.370696,-2757.943793
1414.565242,-10066.800811,-814.226536,-995.924147
1414.565563,-10066.800811,2146.597232,3370.820191
1414.565884,-11547.212695,-296.082377,4213.525239
1414.566205,-9918.759623,-444.123565,2911.162892
1414.566525,-9400.615463,-1184.329507,-306.438199
1414.566846,-9696.697840,370.102971,1302.362347
1414.567167,-9844.739029,0.000000,4366.744339
1414.567488,-8660.409521,-2072.576638,1225.752797
1414.567809,-8216.285956,0.000000,229.828649
1414.568130,-8956.491898,74.020594,76.609550
1414.568450,-8882.471304,518.144159,2298.286494
1414.568771,-10362.883188,-592.164754,2911.162892
1414.569092,-10881.027347,-1406.391290,2374.896044
1414.569413,-9696.697840,148.041188,2068.457845
1414.569734,-11103.089130,370.102971,3600.648841
1414.570054,-9918.759623,148.041188,5286.058936
1414.570375,-10732.986159,-1036.288319,3600.648841
1414.570696,-9030.512492,-962.267725,0.000000
1414.571017,-7920.203579,1406.391290,-1302.362347
1414.571338,-8438.347739,1998.556043,306.438199
1414.571658,-8882.471304,0.000000,1838.629195
1414.571979,-9104.533087,-1998.556043,1378.971896
1414.572300,-9844.739029,-2664.741391,766.095498
1414.572621,-9992.780217,74.020594,1302.362347
1414.572942,-11843.295072,888.247130,4903.011187
1414.573263,-11695.253884,-1480.411884,2528.115143
1414.573583,-8808.450710,1480.411884,536.266849
1414.573904,-9474.636058,1258.350101,-1149.143247
1414.574225,-7994.224174,2960.823768,0.000000
1414.574546,-9770.718434,-1554.432478,1302.362347
1414.574867,-9400.615463,-2960.823768,-995.924147
1414.575187,-9770.718434,-1406.391290,153.219100
1414.575508,-11325.150913,0.000000,1072.533697
1414.575829,-9770.718434,-814.226536,2374.896044
1414.576150,-10436.903782,-2220.617826,383.047749
1414.576471,-8364.327145,-592.164754,-919.314598
1414.576791,-9104.533087,-592.164754,-1838.629195
1414.577112,-9918.759623,1258.350101,306.438199
1414.577433,-8882.471304,-1998.556043,0.000000
1414.577754,-8364.327145,-1258.350101,-1302.362347
1414.578075,-8882.471304,-1258.350101,-1608.800546
1414.578396,-9474.636058,1184.329507,0.000000
1414.578716,-10658.965565,1110.308913,2298.286494
1414.579037,-10955.047942,-2072.576638,1072.533697
1414.579358,-8216.285956,-1036.288319,-1149.143247
1414.579679,-11029.068536,-222.061783,-229.828649
1414.580000,-8956.491898,518.144159,2221.676944
1414.580320,-9474.636058,-1924.535449,3064.381992
1414.580641,-9326.594869,-2960.823768,612.876398
1414.580962,-8808.450710,-1628.453072,-995.924147
1414.581283,-10510.924376,370.102971,612.876398
1414.581604,-8956.491898,444.123565,2604.724693
1414.581924,-10288.862594,-370.102971,1455.581446
1414.582245,-10066.800811,-592.164754,919.314598
1414.582566,-9474.636058,1554.432478,1149.143247
1414.582887,-10732.986159,2368.659014,3830.477490
1414.583208,-10288.862594,-962.267725,3064.381992
1414.583529,-10436.903782,-444.123565,2145.067394
1414.583849,-9474.636058,-962.267725,153.219100
1414.584170,-9178.553681,1110.308913,1685.410096
1414.584491,-10362.883188,1184.329507,3830.477490
1414.584812,-9548.656652,-1110.308913,2451.505594
1414.585133,-9400.615463,-888.247130,612.876398
1414.585453,-9548.656652,962.267725,3524.039291
1414.585774,-9770.718434,1554.432478,3600.648841
1414.586095,-10955.047942,-1702.473667,4366.744339
1414.586416,-9844.739029,-2368.659014,2374.896044
1414.586737,-8586.388927,-1110.308913,612.876398
1414.587058,-10066.800811,-74.020594,842.705048
1414.587378,-8364.327145,-592.164754,1915.238745
1414.587699,-9104.533087,-1184.329507,229.828649
1414.588020,-8660.409521,74.020594,-1072.533697
1414.588341,-9474.636058,1184.329507,-536.266849
1414.588662,-10214.842000,2146.597232,1762.019645
1414.588982,-9474.636058,-2442.679609,1149.143247
1414.589303,-9178.553681,0.000000,0.000000
1414.589624,-9326.594869,-222.061783,0.000000
1414.589945,-9918.759623,1258.350101,76.609550
1414.590266,-9326.594869,0.000000,1991.848295
1414.590586,-8068.244768,-2368.659014,-1072.533697
1414.590907,-6809.894666,-740.205942,-3447.429741
1414.591228,-9992.780217,-740.205942,-306.438199
1414.591549,-10584.944971,1036.288319,2911.162892
1414.591870,-10881.027347,-1406.391290,1762.019645
1414.592191,-8586.388927,-148.041188,76.609550
1414.592511,-10510.924376,-814.226536,-766.095498
1414.592832,-10288.862594,444.123565,1991.848295
1414.593153,-8438.347739,-962.267725,1762.019645
1414.593474,-10214.842000,-1554.432478,-383.047749
1414.593795,-7994.224174,-2960.823768,-3140.991542
1414.594115,-8438.347739,1702.473667,-1378.971896
1414.594436,-11473.192101,1184.329507,4290.134789
1414.594757,-9252.574275,962.267725,3983.696590
1414.595078,-11917.315666,-1036.288319,4903.011187
1414.595399,-9770.718434,-3330.926739,536.266849
1414.595719,-9400.615463,148.041188,-306.438199
1414.596040,-11621.233289,74.020594,3753.867940
1414.596361,-6735.874072,-1184.329507,76.609550
1414.596682,-6365.771101,74.020594,-2911.162892
1414.597003,-7698.141797,1406.391290,-2681.334243
1414.597324,-8808.450710,2442.679609,459.657299
1414.597644,-11843.295072,518.144159,3983.696590
1414.597965,-13175.665768,-2886.803174,4519.963438
1414.598286,-9030.512492,-2664.741391,1915.238745
1414.598607,-10955.047942,-2220.617826,3600.648841
1414.598928,-11621.233289,-1554.432478,5669.106685
1414.599248,-11029.068536,74.020594,4749.792088
1414.599569,-9030.512492,-148.041188,2298.286494
1414.599890,-7920.203579,814.226536,-842.705048
1414.600211,-7179.997637,1850.514855,-612.876398
1414.600532,-9770.718434,-2072.576638,76.609550
1414.600852,-7476.080014,-370.102971,306.438199
1414.601173,-10732.986159,-666.185348,536.266849
1414.601494,-11473.192101,444.123565,2451.505594
1414.601815,-11251.130318,-518.144159,4290.134789
1414.602136,-12361.439231,-1850.514855,3524.039291
1414.602457,-9992.780217,-666.185348,1685.410096
1414.602777,-9548.656652,444.123565,229.828649
1414.603098,-8734.430116,2072.576638,-306.438199
1414.603419,-8290.306550,-814.226536,-1608.800546
1414.603740,-6883.915261,-888.247130,-2681.334243
1414.604061,-7846.182985,-1110.308913,-2451.505594
1414.604381,-9252.574275,814.226536,536.266849
1414.604702,-10436.903782,-1702.473667,3753.867940
1414.605023,-11251.130318,-3256.906145,1991.848295
1414.605344,-9992.780217,-444.123565,766.095498
1414.605665,-12065.356855,1110.308913,1149.143247
1414.605985,-9770.718434,3182.885551,2681.334243
1414.606306,-9030.512492,-666.185348,2604.724693
1414.606627,-9252.574275,-3627.009116,-2374.896044
1414.606948,-6513.812290,-1628.453072,-3753.867940
1414.607269,-9474.636058,-444.123565,-306.438199
1414.607590,-9252.574275,148.041188,3064.381992
1414.607910,-9770.718434,-1776.494261,1762.019645
1414.608231,-9252.574275,-1554.432478,-306.438199
1414.608552,-9104.533087,222.061783,-612.876398
1414.608873,-8882.471304,1184.329507,2451.505594
1414.609194,-11103.089130,-1628.453072,4290.134789
1414.609514,-8290.306550,-2368.659014,2068.457845
1414.609835,-10066.800811,-2294.638420,612.876398
1414.610156,-10214.842000,-222.061783,3064.381992
1414.610477,-9474.636058,-1332.370696,2221.676944
1414.610798,-10732.986159,-296.082377,1915.238745
1414.611118,-9844.739029,3182.885551,689.485948
1414.611439,-9474.636058,3256.906145,1072.533697
1414.611760,-9030.512492,296.082377,3140.991542
1414.612081,-8290.306550,-1998.556043,1302.362347
1414.612402,-9770.718434,-3182.885551,153.219100
1414.612723,-9030.512492,-1184.329507,76.609550
1414.613043,-10881.027347,2516.700203,3907.087040
1414.613364,-9770.718434,1628.453072,6281.983084
1414.613685,-11029.068536,-1554.432478,2681.334243
1414.614006,-9178.553681,0.000000,1608.800546
1414.614327,-10584.944971,592.164754,1608.800546
1414.614647,-10732.986159,814.226536,4136.915689
1414.614968,-10140.821405,-1554.432478,2757.943793
1414.615289,-8512.368333,-2368.659014,0.000000
1414.615610,-9474.636058,-1036.288319,-1072.533697
1414.615931,-9252.574275,1480.411884,0.000000
1414.616251,-9696.697840,0.000000,1991.848295
1414.616572,-9178.553681,-1850.514855,-459.657299
1414.616893,-8364.327145,0.000000,-2068.457845
1414.617214,-10658.965565,518.144159,0.000000
1414.617535,-10584.944971,740.205942,2987.772442
1414.617856,-9622.677246,-2960.823768,842.705048
1414.618176,-9992.780217,-1998.556043,0.000000
1414.618497,-9252.574275,-296.082377,-1608.800546
1414.618818,-9696.697840,2590.720797,383.047749
1414.619139,-9770.718434,148.041188,1149.143247
1414.619460,-8734.430116,-1628.453072,-1762.019645
1414.619780,-7994.224174,-592.164754,-3140.991542
1414.620101,-8956.491898,0.000000,-2374.896044
1414.620422,-9548.656652,2072.576638,1762.019645
1414.620743,-9770.718434,-1554.432478,1455.581446
1414.621064,-9104.533087,-1258.350101,-459.657299
1414.621385,-9548.656652,0.000000,-612.876398
1414.621705,-10881.027347,1258.350101,1532.190996
1414.622026,-10881.027347,1258.350101,3600.648841
1414.622347,-10436.903782,-2294.638420,0.000000
1414.622668,-6217.729913,1332.370696,-1685.410096
1414.622989,-10436.903782,814.226536,-306.438199
1414.623309,-10658.965565,1332.370696,3524.039291
1414.623630,-9992.780217,-2442.679609,2451.505594
1414.623951,-8808.450710,-4515.256246,-383.047749
1414.624272,-8142.265362,-1554.432478,-919.314598
1414.624593,-10066.800811,-740.205942,1838.629195
1414.624913,-8438.347739,74.020594,2911.162892
1414.625234,-9770.718434,-1184.329507,0.000000
1414.625555,-7550.100608,1776.494261,-383.047749
1414.625876,-9548.656652,1110.308913,2451.505594
1414.626197,-11325.150913,888.247130,4519.963438
1414.626518,-11621.233289,-2368.659014,6818.249932
1414.626838,-11399.171507,-2812.782580,4443.353888
1414.627159,-11177.109724,-222.061783,4903.011187
1414.627480,-10881.027347,-296.082377,5286.058936
1414.627801,-10140.821405,0.000000,4749.792088
1414.628122,-8364.327145,-888.247130,-612.876398
1414.628442,-6883.915261,3182.885551,-3217.601092
1414.628763,-7402.059420,4071.132681,-1532.190996
1414.629084,-8364.327145,3552.988522,842.705048
1414.629405,-9992.780217,296.082377,2068.457845
1414.629726,-9770.718434,-3108.864956,153.219100
1414.630046,-9326.594869,-2812.782580,-153.219100
1414.630367,-11843.295072,-1110.308913,1838.629195
1414.630688,-12213.398043,-1110.308913,5056.230287
1414.631009,-11103.089130,-1036.288319,2451.505594
1414.631330,-8734.430116,74.020594,-383.047749
1414.631651,-8808.450710,592.164754,-995.924147
1414.631971,-9474.636058,592.164754,995.924147
1414.632292,-9918.759623,-2220.617826,1608.800546
1414.632613,-8882.471304,-2738.761985,-995.924147
1414.632934,-8956.491898,-1702.473667,-1225.752797
1414.633255,-10288.862594,-1998.556043,0.000000
1414.633575,-10658.965565,-1406.391290,1838.629195
1414.633896,-8512.368333,-1332.370696,-536.266849
1414.634217,-9844.739029,1332.370696,-536.266849
1414.634538,-10881.027347,5329.482782,2834.553343
1414.634859,-10288.862594,962.267725,919.314598
1414.635179,-9326.594869,-2516.700203,-459.657299
1414.635500,-7254.018232,-1036.288319,-3753.867940
1414.635821,-6809.894666,-592.164754,-3600.648841
1414.636142,-8438.347739,1258.350101,1225.752797
1414.636463,-8068.244768,-518.144159,1378.971896
1414.636784,-11917.315666,-2072.576638,1608.800546
1414.637104,-8660.409521,-1480.411884,459.657299
1414.637425,-10362.883188,814.226536,1915.238745
1414.637746,-11399.171507,888.247130,5669.106685
1414.638067,-10288.862594,-1924.535449,4673.182538
1414.638388,-8142.265362,-2960.823768,1378.971896
1414.638708,-7476.080014,-1776.494261,-766.095498
1414.639029,-7920.203579,222.061783,229.828649
1414.639350,-9178.553681,-888.247130,2604.724693
1414.639671,-8882.471304,-592.164754,995.924147
1414.639992,-8364.327145,2146.597232,-536.266849
1414.640312,-10140.821405,3256.906145,1685.410096
1414.640633,-9992.780217,1776.494261,4213.525239
1414.640954,-12213.398043,-2072.576638,4749.792088
1414.641275,-9770.718434,-1628.453072,2298.286494
1414.641596,-10214.842000,-3256.906145,766.095498
1414.641917,-8808.450710,888.247130,3064.381992
1414.642237,-9326.594869,-444.123565,4366.744339
1414.642558,-10436.903782,-1480.411884,2451.505594
1414.642879,-7550.100608,1554.432478,2068.457845
1414.643200,-10584.944971,666.185348,612.876398
1414.643521,-9326.594869,1998.556043,2604.724693
1414.643841,-10584.944971,-592.164754,1762.019645
1414.644162,-10436.903782,-1110.308913,1915.238745
1414.644483,-10362.883188,-740.205942,-76.609550
1414.644804,-10288.862594,148.041188,459.657299
1414.645125,-9474.636058,-2072.576638,1378.971896
1414.645445,-9400.615463,-2294.638420,-612.876398
1414.645766,-9696.697840,222.061783,-1455.581446
1414.646087,-9770.718434,3108.864956,-612.876398
1414.646408,-9918.759623,3404.947333,1532.190996
1414.646729,-9622.677246,-962.267725,1072.533697
1414.647050,-9326.594869,-2368.659014,0.000000
1414.647370,-9474.636058,-2664.741391,-1455.581446
1414.647691,-10288.862594,0.000000,0.000000
1414.648012,-9696.697840,-592.164754,919.314598
1414.648333,-9104.533087,-296.082377,-1225.752797
1414.648654,-8956.491898,2220.617826,-1378.971896
1414.648974,-9696.697840,2960.823768,-306.438199
1414.649295,-10066.800811,1480.411884,1302.362347
1414.649616,-9400.615463,-1998.556043,0.000000
1414.649937,-9770.718434,-2294.638420,-995.924147
1414.650258,-8586.388927,444.123565,-1378.971896
1414.650578,-10955.047942,1036.288319,1838.629195
1414.650899,-8438.347739,740.205942,2451.505594
1414.651220,-10288.862594,-1184.329507,-689.485948
1414.651541,-8660.409521,-740.205942,-689.485948
1414.651862,-8142.265362,1332.370696,76.609550
1414.652183,-10955.047942,0.000000,2911.162892
1414.652503,-8364.327145,-1258.350101,2528.115143
1414.652824,-8586.388927,-2146.597232,1149.143247
1414.653145,-9104.533087,-2146.597232,306.438199
1414.653466,-9770.718434,0.000000,3677.258390
1414.653787,-11473.192101,-888.247130,3830.477490
1414.654107,-8956.491898,-2146.597232,2374.896044
1414.654428,-8586.388927,0.000000,383.047749
1414.654749,-10732.986159,1036.288319,1762.019645
1414.655070,-10436.903782,1480.411884,4749.792088
1414.655391,-8882.471304,-2590.720797,3140.991542
1414.655712,-8956.491898,-3034.844362,2451.505594
1414.656032,-8808.450710,-2664.741391,689.485948
1414.656353,-10510.924376,-888.247130,3294.210641
1414.656674,-9770.718434,370.102971,3830.477490
1414.656995,-9252.574275,-148.041188,2145.067394
1414.657316,-8956.491898,1628.453072,2145.067394
1414.657637,-11029.068536,1480.411884,612.876398
1414.657957,-9104.533087,1184.329507,3600.648841
1414.658278,-11177.109724,-2738.761985,2145.067394
1414.658599,-8882.471304,-2812.782580,842.705048
1414.658920,-8808.450710,-1850.514855,-229.828649
1414.659241,-10362.883188,296.082377,2834.553343
1414.659562,-10288.862594,-666.185348,3370.820191
1414.659882,-10807.006753,-3330.926739,1762.019645
1414.660203,-9030.512492,-2812.782580,-766.095498
1414.660524,-8290.306550,370.102971,-2451.505594
1414.660845,-9400.615463,1850.514855,-383.047749
1414.661166,-8512.368333,1998.556043,153.219100
1414.661487,-7994.224174,592.164754,-919.314598
1414.661807,-8142.265362,-1850.514855,-3217.601092
1414.662128,-8364.327145,-2220.617826,-2451.505594
1414.662449,-9474.636058,-1998.556043,229.828649
1414.662770,-11103.089130,-2146.597232,-459.657299
1414.663091,-9030.512492,2146.597232,842.705048
1414.663411,-11325.150913,1998.556043,1455.581446
1414.663732,-11251.130318,2664.741391,2298.286494
1414.664053,-11991.336260,-888.247130,1532.190996
1414.664374,-9992.780217,-2738.761985,-919.314598
1414.664695,-7994.224174,296.082377,-2068.457845
1414.665016,-12139.377449,-444.123565,-1302.362347
1414.665336,-9474.636058,-1184.329507,306.438199
1414.665657,-9696.697840,-1480.411884,-536.266849
1414.665978,-8438.347739,-962.267725,-2221.676944
1414.666299,-10584.944971,1998.556043,76.609550
1414.666620,-11251.130318,1554.432478,2681.334243
1414.666941,-10436.903782,-888.247130,1225.752797
1414.667261,-7624.121203,-1332.370696,-1149.143247
1414.667582,-7328.038826,444.123565,-919.314598
1414.667903,-10066.800811,1184.329507,3140.991542
1414.668224,-9844.739029,0.000000,3600.648841
1414.668545,-10066.800811,-2886.803174,1072.533697
1414.668866,-7920.203579,-2146.597232,-1072.533697
1414.669186,-9622.677246,2072.576638,383.047749
1414.669507,-12361.439231,4145.153275,4826.401637
1414.669828,-9400.615463,1924.535449,5898.935335
1414.670149,-9548.656652,-1776.494261,2298.286494
1414.670470,-8142.265362,-814.226536,2145.067394
1414.670791,-9400.615463,-3034.844362,1762.019645
1414.671111,-9400.615463,-740.205942,4903.011187
1414.671432,-10140.821405,-518.144159,3677.258390
1414.671753,-8068.244768,296.082377,1455.581446
1414.672074,-7994.224174,1924.535449,1072.533697
1414.672395,-9400.615463,1036.288319,2451.505594
1414.672716,-10214.842000,-888.247130,2528.115143
1414.673036,-8882.471304,-592.164754,1378.971896
1414.673357,-9696.697840,-666.185348,536.266849
1414.673678,-9326.594869,962.267725,2221.676944
1414.673999,-10955.047942,-2072.576638,2528.115143
1414.674320,-9474.636058,-1924.535449,1532.190996
1414.674641,-8808.450710,-518.144159,-1149.143247
1414.674961,-10140.821405,0.000000,-919.314598
1414.675282,-9548.656652,888.247130,842.705048
1414.675603,-10955.047942,-1480.411884,1149.143247
1414.675924,-9104.533087,-2146.597232,0.000000
1414.676245,-8364.327145,-222.061783,-1072.533697
1414.676566,-10288.862594,-962.267725,229.828649
1414.676886,-10288.862594,-1036.288319,1762.019645
1414.677207,-9474.636058,-2220.617826,-1991.848295
1414.677528,-7254.018232,-888.247130,-4596.572988
1414.677849,-7920.203579,2886.803174,-4979.620737
1414.678170,-10584.944971,5773.606348,842.705048
1414.678491,-11473.192101,1776.494261,3370.820191
1414.678811,-11325.150913,-1480.411884,3447.429741
1414.679132,-11547.212695,-3997.112087,995.924147
1414.679453,-11177.109724,-4219.173869,229.828649
1414.679774,-11103.089130,-518.144159,2374.896044
1414.680095,-10066.800811,888.247130,1685.410096
1414.680416,-7846.182985,2442.679609,612.876398
1414.680736,-7328.038826,1850.514855,-2374.896044
1414.681057,-7328.038826,0.000000,-1685.410096
1414.681378,-9770.718434,-2664.741391,153.219100
1414.681699,-9770.718434,-2664.741391,1072.533697
1414.682020,-10214.842000,-1110.308913,1302.362347
1414.682341,-10955.047942,1406.391290,3217.601092
1414.682661,-9918.759623,518.144159,4903.011187
1414.682982,-11103.089130,-1776.494261,3447.429741
1414.683303,-8882.471304,-1850.514855,1302.362347
1414.683624,-8512.368333,-962.267725,-919.314598
1414.683945,-8364.327145,296.082377,1378.971896
1414.684266,-8808.450710,-1554.432478,1532.190996
1414.684586,-7624.121203,1184.329507,919.314598
1414.684907,-9030.512492,-962.267725,1149.143247
1414.685228,-9844.739029,-962.267725,2374.896044
1414.685549,-10436.903782,-1776.494261,4596.572988
1414.685870,-11843.295072,-2516.700203,3600.648841
1414.686191,-8956.491898,-222.061783,3447.429741
1414.686511,-10955.047942,518.144159,3830.477490
1414.686832,-9252.574275,1406.391290,4519.963438
1414.687153,-9326.594869,-1406.391290,1455.581446
1414.687474,-8660.409521,-1036.288319,-612.876398
1414.687795,-7994.224174,-592.164754,-1455.581446
1414.688115,-9030.512492,2220.617826,0.000000
1414.688436,-10362.883188,1036.288319,2374.896044
1414.688757,-10732.986159,-740.205942,1608.800546
1414.689078,-9104.533087,0.000000,-153.219100
1414.689399,-11325.150913,888.247130,0.000000
1414.689720,-11029.068536,1480.411884,2681.334243
1414.690040,-11399.171507,-1332.370696,2221.676944
1414.690361,-8808.450710,-296.082377,-612.876398
1414.690682,-9696.697840,-1258.350101,-1762.019645
1414.691003,-9030.512492,1036.288319,-1072.533697
1414.691324,-9696.697840,1184.329507,1455.581446
1414.691645,-11103.089130,-888.247130,-229.828649
1414.691965,-8290.306550,-888.247130,-1762.019645
1414.692286,-9178.553681,-296.082377,-1608.800546
1414.692607,-9030.512492,1110.308913,612.876398
1414.692928,-11325.150913,-1406.391290,459.657299
1414.693249,-10658.965565,0.000000,383.047749
1414.693570,-8808.450710,-370.102971,-1149.143247
1414.693890,-9622.677246,-1110.308913,-766.095498
1414.694211,-9030.512492,74.020594,-383.047749
1414.694532,-10140.821405,-1998.556043,766.095498
1414.694853,-8956.491898,-1628.453072,-612.876398
1414.695174,-9696.697840,888.247130,-306.438199
1414.695495,-8364.327145,814.226536,2451.505594
1414.695815,-11399.171507,-2812.782580,1149.143247
1414.696136,-8512.368333,-814.226536,1225.752797
1414.696457,-10658.965565,0.000000,995.924147
1414.696778,-8216.285956,2886.803174,4443.353888
1414.697099,-11621.233289,-2294.638420,4903.011187
1414.697420,-11473.192101,-2146.597232,5056.230287
1414.697740,-7179.997637,-2590.720797,1072.533697
1414.698061,-7772.162391,-1110.308913,0.000000
1414.698382,-8808.450710,148.041188,2987.772442
1414.698703,-7402.059420,0.000000,1762.019645
1414.699024,-8216.285956,-518.144159,919.314598
1414.699345,-7846.182985,2368.659014,1302.362347
1414.699665,-10955.047942,-296.082377,2834.553343
1414.699986,-9770.718434,592.164754,4519.963438
1414.700307,-11917.315666,-1036.288319,3983.696590
1414.700628,-9252.574275,-740.205942,2911.162892
1414.700949,-11325.150913,0.000000,3370.820191
1414.701270,-9696.697840,-962.267725,3370.820191
1414.701590,-8956.491898,-2664.741391,459.657299
1414.701911,-9770.718434,-1480.411884,459.657299
1414.702232,-9770.718434,-962.267725,229.828649
1414.702553,-10881.027347,296.082377,1149.143247
1414.702874,-10362.883188,-518.144159,1762.019645
1414.703195,-10436.903782,-1998.556043,0.000000
1414.703515,-8734.430116,296.082377,-766.095498
1414.703836,-11399.171507,-222.061783,-842.705048
1414.704157,-8882.471304,1776.494261,842.705048
1414.704478,-8586.388927,-2738.761985,-1991.848295
1414.704799,-8142.265362,-1332.370696,-3140.991542
1414.705120,-9548.656652,0.000000,-1762.019645
1414.705440,-9770.718434,296.082377,689.485948
1414.705761,-10066.800811,-296.082377,1532.190996
1414.706082,-10881.027347,-1702.473667,-383.047749
1414.706403,-8216.285956,-444.123565,-1302.362347
1414.706724,-10807.006753,296.082377,153.219100
1414.707045,-9844.739029,1702.473667,2451.505594
1414.707365,-10214.842000,-1554.432478,995.924147
1414.707686,-7846.182985,-222.061783,-995.924147
1414.708007,-8586.388927,222.061783,-1685.410096
1414.708328,-9030.512492,666.185348,612.876398
1414.708649,-9918.759623,-592.164754,2221.676944
1414.708970,-9474.636058,-1480.411884,0.000000
1414.709290,-8068.244768,-518.144159,-536.266849
1414.709611,-9400.615463,370.102971,306.438199
1414.709932,-11029.068536,666.185348,4366.744339
1414.710253,-9400.615463,-3330.926739,1455.581446
1414.710574,-7920.203579,-1924.535449,-1532.190996
1414.710895,-7698.141797,0.000000,-1072.533697
1414.711215,-9474.636058,2220.617826,229.828649
1414.711536,-10436.903782,2072.576638,3907.087040
1414.711857,-10881.027347,-296.082377,2451.505594
1414.712178,-9622.677246,0.000000,2681.334243
1414.712499,-12435.459826,-2220.617826,3140.991542
1414.712819,-10955.047942,-1776.494261,4060.306139
1414.713140,-11769.274478,-1998.556043,3677.258390
1414.713461,-8882.471304,296.082377,2221.676944
1414.713782,-7550.100608,1924.535449,306.438199
1414.714103,-8290.306550,2516.700203,459.657299
1414.714424,-9104.533087,-74.020594,766.095498
1414.714744,-8364.327145,-666.185348,-919.314598
1414.715065,-9400.615463,0.000000,0.000000
1414.715386,-11473.192101,444.123565,1762.019645
1414.715707,-10510.924376,2442.679609,4826.401637
1414.716028,-11991.336260,-962.267725,3830.477490
1414.716349,-9696.697840,-444.123565,1838.629195
1414.716669,-9844.739029,0.000000,-383.047749
1414.716990,-10362.883188,1924.535449,-383.047749
1414.717311,-8734.430116,2516.700203,153.219100
1414.717632,-9622.677246,1110.308913,-1685.410096
1414.717953,-7105.977043,1924.535449,-1455.581446
1414.718274,-8808.450710,1702.473667,-2987.772442
1414.718594,-10214.842000,2590.720797,766.095498
1414.718915,-10584.944971,370.102971,1149.143247
1414.719236,-10362.883188,1332.370696,0.000000
1414.719557,-11325.150913,-370.102971,-1149.143247
1414.719878,-9104.533087,2146.597232,-1532.190996
1414.720199,-9770.718434,1998.556043,383.047749
1414.720519,-9326.594869,-1184.329507,-2604.724693
1414.720840,-7550.100608,666.185348,-3983.696590
1414.721161,-9030.512492,0.000000,-5592.497135
1414.721482,-7772.162391,3552.988522,-4213.525239
1414.721803,-10214.842000,3775.050304,-612.876398
1414.722124,-11325.150913,2072.576638,0.000000
1414.722444,-9104.533087,1554.432478,-2068.457845
1414.722765,-11029.068536,2516.700203,-1915.238745
1414.723086,-11177.109724,3256.906145,153.219100
1414.723407,-11547.212695,1628.453072,612.876398
1414.723728,-9474.636058,1998.556043,-1072.533697
1414.724049,-9252.574275,-296.082377,-3370.820191
1414.724369,-7476.080014,1554.432478,-3370.820191
1414.724690,-9474.636058,2146.597232,-612.876398
1414.725011,-9474.636058,2294.638420,-919.314598
1414.725332,-10066.800811,2590.720797,-153.219100
1414.725653,-10955.047942,814.226536,-842.705048
1414.725974,-8512.368333,2960.823768,-766.095498
1414.726294,-11177.109724,1184.329507,76.609550
1414.726615,-9844.739029,2960.823768,1225.752797
1414.726936,-10807.006753,2072.576638,383.047749
1414.727257,-9622.677246,1924.535449,-2221.676944
1414.727578,-7846.182985,3034.844362,-3753.867940
1414.727899,-9918.759623,4219.173869,-689.485948
1414.728219,-10584.944971,3701.029710,766.095498
1414.728540,-10066.800811,2220.617826,1455.581446
1414.728861,-9696.697840,-1554.432478,383.047749
1414.729182,-7772.162391,-1554.432478,-689.485948
1414.729503,-10436.903782,-1998.556043,-153.219100
1414.729824,-9104.533087,1406.391290,1455.581446
1414.730144,-9178.553681,3478.967927,1532.190996
1414.730465,-8808.450710,3627.009116,2145.067394
1414.730786,-9474.636058,1184.329507,229.828649
1414.731107,-9474.636058,74.020594,0.000000
1414.731428,-9474.636058,-444.123565,-842.705048
1414.731749,-9918.759623,2812.782580,-995.924147
1414.732069,-9770.718434,4663.297435,383.047749
1414.732390,-9992.780217,1998.556043,-536.266849
1414.732711,-9178.553681,2294.638420,-2374.896044
1414.733032,-9622.677246,1998.556043,-2221.676944
1414.733353,-10066.800811,1554.432478,-2298.286494
1414.733674,-10658.965565,3256.906145,-612.876398
1414.733994,-10807.006753,1110.308913,-995.924147
1414.734315,-9326.594869,1110.308913,-1685.410096
1414.734636,-9548.656652,-592.164754,-2681.334243
1414.734957,-8660.409521,444.123565,-3217.601092
1414.735278,-10362.883188,3034.844362,-2145.067394
1414.735599,-10436.903782,3997.112087,-1915.238745
1414.735919,-10214.842000,3404.947333,-1838.629195
1414.736240,-9622.677246,1406.391290,-2451.505594
1414.736561,-8956.491898,0.000000,-3753.867940
1414.736882,-9474.636058,1036.288319,-3294.210641
1414.737203,-10436.903782,2220.617826,-1072.533697
1414.737523,-10140.821405,1332.370696,-1378.971896
1414.737844,-9548.656652,1628.453072,-1532.190996
1414.738165,-9770.718434,1406.391290,-1838.629195
1414.738486,-10214.842000,888.247130,-1838.629195
1414.738807,-10140.821405,518.144159,-1915.238745
1414.739128,-9474.636058,2146.597232,-2451.505594
1414.739448,-9474.636058,3923.091493,-1915.238745
1414.739769,-10658.965565,4367.215058,-689.485948
1414.740090,-10066.800811,2146.597232,-383.047749
1414.740411,-9548.656652,740.205942,-1072.533697
1414.740732,-9844.739029,0.000000,-1608.800546
1414.741053,-9696.697840,1184.329507,-1149.143247
1414.741373,-9696.697840,3108.864956,0.000000
1414.741694,-9474.636058,3775.050304,766.095498
1414.742015,-8956.491898,2368.659014,-153.219100
1414.742336,-8142.265362,740.205942,-919.314598
1414.742657,-9104.533087,-74.020594,-306.438199
1414.742978,-10881.027347,1110.308913,0.000000
1414.743298,-10881.027347,-296.082377,1072.533697
1414.743619,-9104.533087,740.205942,-459.657299
1414.743940,-9474.636058,2442.679609,-919.314598
1414.744261,-10436.903782,4219.173869,536.266849
1414.744582,-9844.739029,3923.091493,2068.457845
1414.744903,-10066.800811,2072.576638,1302.362347
1414.745223,-10214.842000,888.247130,459.657299
1414.745544,-9696.697840,0.000000,-383.047749
1414.745865,-9252.574275,74.020594,229.828649
1414.746186,-8808.450710,1628.453072,-306.438199
1414.746507,-9178.553681,2812.782580,-229.828649
1414.746828,-9326.594869,2294.638420,-459.657299
1414.747148,-9474.636058,1036.288319,-995.924147
1414.747469,-9844.739029,1406.391290,-1302.362347
1414.747790,-10807.006753,1998.556043,-459.657299
1414.748111,-10288.862594,2590.720797,-383.047749
1414.748432,-9770.718434,1628.453072,-2221.676944
1414.748753,-8660.409521,3034.844362,-3524.039291
1414.749073,-9548.656652,4367.215058,-3064.381992
1414.749394,-9992.780217,4219.173869,-1378.971896
1414.749715,-10658.965565,3478.967927,-995.924147
1414.750036,-10436.903782,2886.803174,-1915.238745
1414.750357,-9548.656652,2294.638420,-1915.238745
1414.750678,-10658.965565,1924.535449,-536.266849
1414.750998,-9400.615463,222.061783,612.876398
1414.751319,-9326.594869,-2294.638420,-1378.971896
1414.751640,-7550.100608,0.000000,-2987.772442
1414.751961,-9030.512492,1776.494261,-2145.067394
1414.752282,-9400.615463,2812.782580,-459.657299
1414.752603,-9548.656652,2812.782580,0.000000
1414.752923,-9178.553681,2442.679609,-2681.334243
1414.753244,-8882.471304,2590.720797,-3370.820191
1414.753565,-10214.842000,2886.803174,-1915.238745
1414.753886,-10510.924376,1628.453072,-995.924147
1414.754207,-10140.821405,0.000000,-2451.505594
1414.754528,-9474.636058,666.185348,-3140.991542
1414.754849,-9326.594869,2146.597232,-3830.477490
1414.755170,-10658.965565,3701.029710,-1915.238745
1414.755491,-10436.903782,4737.318029,-1532.190996
1414.755811,-10732.986159,3775.050304,229.828649
1414.756132,-10140.821405,1850.514855,0.000000
1414.756453,-9622.677246,0.000000,-536.266849
1414.756774,-9770.718434,-666.185348,0.000000
1414.757094,-9918.759623,-740.205942,1838.629195
1414.757415,-9548.656652,74.020594,1991.848295
1414.757736,-9104.533087,0.000000,76.609550
1414.758057,-7846.182985,592.164754,-1915.238745
1414.758378,-8808.450710,2738.761985,-1991.848295
1414.758698,-9770.718434,3701.029710,-536.266849
1414.759019,-10140.821405,4367.215058,459.657299
1414.759340,-10436.903782,3330.926739,306.438199
1414.759661,-10362.883188,1628.453072,-1149.143247
1414.759981,-10584.944971,740.205942,-689.485948
1414.760302,-10362.883188,888.247130,306.438199
1414.760623,-10732.986159,1776.494261,153.219100
1414.760944,-9696.697840,3034.844362,919.314598
1414.761264,-9326.594869,1998.556043,0.000000
1414.761585,-9104.533087,296.082377,-383.047749
1414.761906,-9326.594869,-1258.350101,-766.095498
1414.762227,-9178.553681,-740.205942,-1149.143247
1414.762547,-8586.388927,444.123565,-1915.238745
1414.762868,-9030.512492,1924.535449,-2145.067394
1414.763189,-9474.636058,3701.029710,-1838.629195
1414.763510,-10066.800811,4663.297435,-1532.190996
1414.763831,-10288.862594,5847.626942,-1455.581446
1414.764151,-10658.965565,4145.153275,-995.924147
1414.764472,-10807.006753,2294.638420,-919.314598
1414.764793,-10288.862594,814.226536,-842.705048
1414.765114,-9844.739029,0.000000,383.047749
1414.765434,-9400.615463,-74.020594,-689.485948
1414.765755,-8808.450710,-296.082377,-689.485948
1414.766076,-8734.430116,-370.102971,-919.314598
1414.766397,-9030.512492,0.000000,-1072.533697
1414.766717,-9474.636058,740.205942,-842.705048
1414.767038,-9622.677246,1406.391290,-1302.362347
1414.767359,-9252.574275,1850.514855,-2298.286494
1414.767680,-9326.594869,2442.679609,-2911.162892
1414.768000,-10066.800811,3552.988522,-3294.210641
1414.768321,-10214.842000,3923.091493,-3064.381992
1414.768642,-10584.944971,4737.318029,-2681.334243
1414.768963,-10510.924376,4071.132681,-2298.286494
1414.769284,-10881.027347,3701.029710,0.000000
1414.769604,-10881.027347,2368.659014,-536.266849
1414.769925,-10510.924376,1258.350101,306.438199
1414.770246,-9548.656652,0.000000,689.485948
1414.770567,-9474.636058,-962.267725,536.266849
1414.770887,-8586.388927,-1776.494261,459.657299
1414.771208,-8438.347739,-1036.288319,-459.657299
1414.771529,-8586.388927,222.061783,-612.876398
1414.771850,-8438.347739,1924.535449,-689.485948
1414.772170,-8142.265362,2812.782580,306.438199
1414.772491,-9400.615463,3627.009116,-1225.752797
1414.772812,-9770.718434,3330.926739,-1378.971896
1414.773133,-10362.883188,3330.926739,-1149.143247
1414.773453,-10436.903782,3182.885551,229.828649
1414.773774,-10658.965565,2738.761985,-612.876398
1414.774095,-10584.944971,2072.576638,-306.438199
1414.774416,-10214.842000,1776.494261,0.000000
1414.774737,-9770.718434,1406.391290,-153.219100
1414.775057,-9622.677246,962.267725,0.000000
1414.775378,-9400.615463,370.102971,0.000000
1414.775699,-9326.594869,0.000000,0.000000
1414.776020,-9252.574275,222.061783,-612.876398
1414.776340,-9178.553681,814.226536,-842.705048
1414.776661,-9326.594869,1998.556043,-1608.800546
1414.776982,-9326.594869,3182.885551,-1915.238745
1414.777303,-9696.697840,4071.132681,-2374.896044
1414.777623,-9622.677246,5107.421000,-2451.505594
1414.777944,-10066.800811,4737.318029,-2221.676944
1414.778265,-10436.903782,4071.132681,-1608.800546
1414.778586,-10214.842000,2960.823768,-1302.362347
1414.778906,-10584.944971,2072.576638,-1149.143247
1414.779227,-10214.842000,1110.308913,-612.876398
1414.779548,-10288.862594,370.102971,-306.438199
1414.779869,-9622.677246,74.020594,153.219100
1414.780190,-9622.677246,0.000000,306.438199
1414.780510,-8808.450710,296.082377,76.609550
1414.780831,-8956.491898,740.205942,0.000000
1414.781152,-8734.430116,814.226536,-229.828649
1414.781473,-9104.533087,1110.308913,-1532.190996
1414.781793,-9326.594869,1998.556043,-1149.143247
1414.782114,-9622.677246,2442.679609,-842.705048
1414.782435,-9622.677246,3034.844362,229.828649
1414.782756,-10807.006753,1924.535449,1149.143247
1414.783076,-9992.780217,740.205942,1302.362347
1414.783397,-10066.800811,0.000000,995.924147
1414.783718,-9548.656652,-444.123565,1072.533697
1414.784039,-9400.615463,-592.164754,1149.143247
1414.784359,-8808.450710,-814.226536,1302.362347
1414.784680,-8956.491898,-592.164754,842.705048
1414.785001,-8438.347739,-814.226536,689.485948
1414.785322,-9252.574275,0.000000,1225.752797
1414.785643,-9622.677246,518.144159,1608.800546
1414.785963,-9696.697840,1776.494261,2681.334243
1414.786284,-10140.821405,1702.473667,1532.190996
1414.786605,-9548.656652,2072.576638,919.314598
1414.786926,-10140.821405,2072.576638,612.876398
1414.787246,-9992.780217,2294.638420,153.219100
1414.787567,-9770.718434,2072.576638,0.000000
1414.787888,-9844.739029,2072.576638,-383.047749
1414.788209,-10140.821405,1998.556043,-612.876398
1414.788529,-10140.821405,1628.453072,0.000000
1414.788850,-10288.862594,1406.391290,76.609550
1414.789171,-10584.944971,1184.329507,-383.047749
1414.789492,-10362.883188,1258.350101,-1149.143247
1414.789812,-10510.924376,888.247130,-1455.581446
1414.790133,-10732.986159,1332.370696,-995.924147
1414.790454,-9770.718434,1628.453072,-2757.943793
1414.790775,-9474.636058,1998.556043,-3447.429741
1414.791096,-9622.677246,2812.782580,-3983.696590
1414.791416,-9622.677246,2738.761985,-3370.820191
1414.791737,-9770.718434,3034.844362,-5209.449386
1414.792058,-9770.718434,3256.906145,-5132.839837
1414.792379,-9844.739029,3108.864956,-5132.839837
1414.792699,-10140.821405,3108.864956,-4673.182538
1414.793020,-10288.862594,2664.741391,-4673.182538
1414.793341,-10140.821405,3182.885551,-4290.134789
1414.793662,-10288.862594,3182.885551,-4443.353888
1414.793982,-9770.718434,3182.885551,-3907.087040
1414.794303,-9622.677246,2738.761985,-3524.039291
1414.794624,-9400.615463,3034.844362,-3907.087040
1414.794945,-8882.471304,2960.823768,-3140.991542
1414.795265,-9326.594869,2368.659014,-3447.429741
1414.795586,-8438.347739,2886.803174,-2681.334243
1414.795907,-9474.636058,2812.782580,-2911.162892
1414.796228,-8734.430116,3775.050304,-2451.505594
1414.796549,-9178.553681,3849.070898,-2451.505594
1414.796869,-9548.656652,4367.215058,-995.924147
1414.797190,-9178.553681,3923.091493,-1608.800546
1414.797511,-9770.718434,3849.070898,-459.657299
1414.797832,-10140.821405,3478.967927,689.485948
1414.798152,-9770.718434,2368.659014,1608.800546
1414.798473,-9548.656652,2146.597232,2604.724693
1414.798794,-9992.780217,740.205942,3524.039291
1414.799115,-9474.636058,-222.061783,2911.162892
1414.799435,-9474.636058,-814.226536,2681.334243
1414.799756,-8586.388927,-666.185348,689.485948
1414.800077,-8290.306550,888.247130,612.876398
1414.800398,-8808.450710,2960.823768,459.657299
1414.800718,-9030.512492,4663.297435,919.314598
1414.801039,-9548.656652,4515.256246,459.657299
1414.801360,-10214.842000,3923.091493,536.266849
1414.801681,-10807.006753,2960.823768,536.266849
1414.802002,-11177.109724,2442.679609,459.657299
1414.802322,-10807.006753,2590.720797,766.095498
1414.802643,-10584.944971,3182.885551,919.314598
1414.802964,-10214.842000,2442.679609,1302.362347
1414.803285,-10288.862594,1480.411884,2298.286494
1414.803605,-9622.677246,-296.082377,1838.629195
1414.803926,-9326.594869,-2368.659014,76.609550
1414.804247,-8956.491898,-2664.741391,306.438199
1414.804568,-8734.430116,-2368.659014,-383.047749
1414.804888,-8734.430116,-1332.370696,-995.924147
1414.805209,-8364.327145,444.123565,-2374.896044
1414.805530,-8808.450710,2294.638420,-3217.601092
1414.805851,-9474.636058,3478.967927,-4136.915689
1414.806171,-9844.739029,4219.173869,-5056.230287
1414.806492,-10658.965565,4737.318029,-5515.887586
1414.806813,-11177.109724,5847.626942,-6281.983084
1414.807134,-11399.171507,5329.482782,-3064.381992
1414.807455,-11325.150913,3256.906145,-1762.019645
1414.807775,-10732.986159,-74.020594,-1455.581446
1414.808096,-10140.821405,-3404.947333,-2068.457845
1414.808417,-9400.615463,-4441.235652,-2451.505594
1414.808738,-8956.491898,-3552.988522,-2374.896044
1414.809058,-8660.409521,-1998.556043,-1915.238745
1414.809379,-8142.265362,-592.164754,-2528.115143
1414.809700,-7846.182985,1184.329507,-3064.381992
1414.810021,-9252.574275,-296.082377,-4060.306139
1414.810341,-9178.553681,1406.391290,-4136.915689
1414.810662,-10807.006753,3256.906145,-3677.258390
1414.810983,-10807.006753,5033.400406,-1762.019645
1414.811304,-11695.253884,5847.626942,-1378.971896
1414.811624,-10732.986159,4515.256246,-1838.629195
1414.811945,-10214.842000,2220.617826,-3294.210641
1414.812266,-9030.512492,2368.659014,-2604.724693
1414.812587,-10436.903782,2442.679609,-1455.581446
1414.812908,-9326.594869,1332.370696,842.705048
1414.813228,-9474.636058,-1702.473667,-1072.533697
1414.813549,-6883.915261,222.061783,0.000000
1414.813870,-9178.553681,222.061783,1991.848295
1414.814191,-9992.780217,1776.494261,5286.058936
1414.814511,-10732.986159,0.000000,5209.449386
1414.814832,-9844.739029,-444.123565,3677.258390
1414.815153,-8512.368333,0.000000,2145.067394
1414.815474,-9622.677246,1776.494261,1378.971896
1414.815794,-9474.636058,3997.112087,2145.067394
1414.816115,-9844.739029,4293.194464,919.314598
1414.816436,-8882.471304,4663.297435,-1302.362347
1414.816757,-9178.553681,4737.318029,-1225.752797
1414.817077,-10732.986159,3552.988522,-153.219100
1414.817398,-11473.192101,2664.741391,2145.067394
1414.817719,-11251.130318,1036.288319,1838.629195
1414.818040,-9548.656652,1036.288319,0.000000
1414.818361,-9696.697840,1036.288319,0.000000
1414.818681,-9030.512492,1480.411884,0.000000
1414.819002,-9104.533087,1480.411884,-842.705048
1414.819323,-9178.553681,2960.823768,-2451.505594
1414.819644,-9030.512492,2072.576638,-1378.971896
1414.819964,-8808.450710,1554.432478,-1838.629195
1414.820285,-9104.533087,1258.350101,-1685.410096
1414.820606,-9770.718434,888.247130,-2451.505594
1414.820927,-10066.800811,2738.761985,-2681.334243
1414.821247,-9992.780217,3627.009116,-2528.115143
1414.821568,-9104.533087,4293.194464,-3677.258390
1414.821889,-10214.842000,4145.153275,-3217.601092
1414.822210,-11399.171507,4441.235652,-1685.410096
1414.822530,-10807.006753,3256.906145,-2451.505594
1414.822851,-9400.615463,1258.350101,-3753.867940
1414.823172,-8734.430116,888.247130,-4519.963438
1414.823493,-9400.615463,740.205942,-2298.286494
1414.823814,-9030.512492,1924.535449,-3677.258390
1414.824134,-8290.306550,3182.885551,-2604.724693
1414.824455,-9400.615463,2516.700203,-2374.896044
1414.824776,-9844.739029,1628.453072,-1991.848295
1414.825097,-9622.677246,1776.494261,-1915.238745
1414.825417,-10807.006753,2368.659014,-1455.581446
1414.825738,-10510.924376,3330.926739,-842.705048
1414.826059,-10140.821405,2590.720797,-842.705048
1414.826380,-8364.327145,2442.679609,-2451.505594
1414.826700,-10955.047942,2960.823768,-1149.143247
1414.827021,-10658.965565,2072.576638,-153.219100
1414.827342,-9622.677246,1702.473667,-306.438199
1414.827663,-9474.636058,1850.514855,0.000000
1414.827983,-10288.862594,592.164754,-459.657299
1414.828304,-8586.388927,1480.411884,153.219100
1414.828625,-9474.636058,2220.617826,1532.190996
1414.828946,-9326.594869,1702.473667,1762.019645
1414.829267,-9178.553681,148.041188,306.438199
1414.829587,-9178.553681,-592.164754,0.000000
1414.829908,-9548.656652,296.082377,-459.657299
1414.830229,-9696.697840,1850.514855,-306.438199
1414.830550,-9178.553681,3478.967927,919.314598
1414.830870,-10436.903782,2590.720797,459.657299
1414.831191,-9918.759623,2368.659014,-229.828649
1414.831512,-10362.883188,1036.288319,-383.047749
1414.831833,-10362.883188,0.000000,-229.828649
1414.832153,-10214.842000,740.205942,-153.219100
1414.832474,-10288.862594,1628.453072,1072.533697
1414.832795,-9696.697840,1628.453072,2068.457845
1414.833116,-9770.718434,0.000000,1685.410096
1414.833436,-9696.697840,-2146.597232,1302.362347
1414.833757,-9252.574275,-1628.453072,536.266849
1414.834078,-9696.697840,740.205942,1225.752797
1414.834399,-10732.986159,740.205942,306.438199
1414.834720,-8364.327145,1258.350101,-919.314598
1414.835040,-7624.121203,1924.535449,-3294.210641
1414.835361,-8068.244768,1554.432478,-3830.477490
1414.835682,-8586.388927,2072.576638,-4749.792088
1414.836003,-9178.553681,3330.926739,-1608.800546
1414.836323,-10658.965565,2738.761985,-2451.505594
1414.836644,-10140.821405,1702.473667,-2298.286494
1414.836965,-9992.780217,222.061783,-2604.724693
1414.837286,-11325.150913,-148.041188,-2068.457845
1414.837606,-10807.006753,1480.411884,-1302.362347
1414.837927,-10510.924376,3108.864956,76.609550
1414.838248,-10288.862594,666.185348,-612.876398
1414.838569,-8364.327145,296.082377,-3217.601092
1414.838889,-7920.203579,-1184.329507,-3830.477490
1414.839210,-8216.285956,444.123565,-4903.011187
1414.839531,-8068.244768,3330.926739,-3370.820191
1414.839852,-11029.068536,2368.659014,-1915.238745
1414.840173,-7328.038826,2072.576638,-1608.800546
1414.840493,-9844.739029,1998.556043,-3217.601092
1414.840814,-10510.924376,1702.473667,-1991.848295
1414.841135,-10140.821405,3552.988522,-766.095498
1414.841456,-12287.418637,3478.967927,1225.752797
1414.841776,-10881.027347,2812.782580,766.095498
1414.842097,-9474.636058,592.164754,-1608.800546
1414.842418,-9326.594869,0.000000,-1762.019645
1414.842739,-8438.347739,2516.700203,-842.705048
1414.843059,-11399.171507,3256.906145,1685.410096
1414.843380,-10066.800811,1406.391290,1455.581446
1414.843701,-8216.285956,1110.308913,-612.876398
1414.844022,-9844.739029,1776.494261,-612.876398
1414.844342,-8882.471304,3552.988522,1532.190996
1414.844663,-11177.109724,2812.782580,3907.087040
1414.844984,-9622.677246,1924.535449,2221.676944
1414.845305,-8660.409521,2368.659014,-536.266849
1414.845626,-9030.512492,3775.050304,383.047749
1414.845946,-9622.677246,4071.132681,1915.238745
1414.846267,-10732.986159,3701.029710,3524.039291
1414.846588,-9548.656652,1332.370696,2374.896044
1414.846909,-7254.018232,-148.041188,-612.876398
1414.847229,-9104.533087,814.226536,1838.629195
1414.847550,-10066.800811,1702.473667,2757.943793
1414.847871,-11177.109724,1406.391290,4443.353888
1414.848192,-9622.677246,-666.185348,2145.067394
1414.848512,-7698.141797,-1702.473667,-459.657299
1414.848833,-8660.409521,296.082377,-536.266849
1414.849154,-11177.109724,1036.288319,1685.410096
1414.849475,-9918.759623,74.020594,2145.067394
1414.849795,-9252.574275,-1332.370696,-1685.410096
1414.850116,-8438.347739,222.061783,-3294.210641
1414.850437,-9252.574275,1184.329507,-1838.629195
1414.850758,-11029.068536,592.164754,995.924147
1414.851079,-8882.471304,0.000000,0.000000
1414.851399,-8068.244768,1406.391290,-3140.991542
1414.851720,-10140.821405,0.000000,-842.705048
1414.852041,-9918.759623,444.123565,842.705048
1414.852362,-12879.583391,-4071.132681,2528.115143
1414.852682,-9030.512492,-3034.844362,-766.095498
1414.853003,-10066.800811,-2146.597232,-153.219100
1414.853324,-9474.636058,-222.061783,1149.143247
1414.853645,-10732.986159,-1998.556043,766.095498
1414.853965,-8142.265362,-4885.359217,-459.657299
1414.854286,-7624.121203,222.061783,-4749.792088
1414.854607,-8586.388927,1406.391290,-3294.210641
1414.854928,-8660.409521,1554.432478,-2757.943793
1414.855248,-9770.718434,1184.329507,459.657299
1414.855569,-9696.697840,-1628.453072,-1532.190996
1414.855890,-7105.977043,3034.844362,459.657299
1414.856211,-14804.118840,-2442.679609,1532.190996
1414.856532,-9326.594869,4293.194464,4519.963438
1414.856852,-13619.789333,-4737.318029,2681.334243
1414.857173,-9622.677246,-1702.473667,2145.067394
1414.857494,-5773.606348,-2738.761985,-229.828649
1414.857815,-12435.459826,-4737.318029,4749.792088
1414.858135,-6587.832884,-3404.947333,2145.067394
1414.858456,-7994.224174,-4589.276840,153.219100
1414.858777,-10584.944971,-666.185348,2374.896044
1414.859098,-6069.688724,2220.617826,1532.190996
1414.859419,-12583.501014,2960.823768,4979.620737
1414.859739,-9918.759623,1258.350101,6435.202183
1414.860060,-8142.265362,-444.123565,1378.971896
1414.860381,-11547.212695,-888.247130,1149.143247
1414.860702,-9030.512492,370.102971,1532.190996
1414.861022,-9104.533087,1776.494261,2757.943793
1414.861343,-8808.450710,0.000000,1225.752797
1414.861664,-9178.553681,740.205942,612.876398
1414.861985,-8660.409521,1406.391290,2451.505594
1414.862305,-11325.150913,-1036.288319,3600.648841
1414.862626,-11695.253884,-1184.329507,5669.106685
1414.862947,-11029.068536,-3182.885551,3294.210641
1414.863268,-9918.759623,-1036.288319,3217.601092
1414.863589,-10510.924376,0.000000,4213.525239
1414.863909,-8660.409521,370.102971,2145.067394
1414.864230,-9918.759623,-1184.329507,612.876398
1414.864551,-7846.182985,-296.082377,-1225.752797
1414.864872,-7920.203579,592.164754,-3064.381992
1414.865192,-10436.903782,1850.514855,0.000000
1414.865513,-8512.368333,1702.473667,-76.609550
1414.865834,-9696.697840,-296.082377,-2068.457845
1414.866155,-10658.965565,2294.638420,612.876398
1414.866476,-10140.821405,-148.041188,1685.410096
1414.866796,-11621.233289,-1628.453072,2374.896044
1414.867117,-11843.295072,-4293.194464,1991.848295
1414.867438,-7994.224174,-740.205942,-919.314598
1414.867759,-9696.697840,74.020594,0.000000
1414.868079,-9178.553681,814.226536,1072.533697
1414.868400,-7994.224174,-962.267725,459.657299
1414.868721,-9030.512492,-888.247130,-1302.362347
1414.869042,-7846.182985,962.267725,-459.657299
1414.869363,-9548.656652,-740.205942,-612.876398
1414.869683,-9474.636058,740.205942,1685.410096
1414.870004,-11103.089130,-3108.864956,-2221.676944
1414.870325,-7105.977043,3923.091493,-1532.190996
1414.870646,-11029.068536,1258.350101,-1072.533697
1414.870966,-10362.883188,3330.926739,1762.019645
1414.871287,-10955.047942,-1258.350101,459.657299
1414.871608,-9400.615463,-1184.329507,-2145.067394
1414.871929,-9400.615463,0.000000,-612.876398
1414.872249,-10658.965565,370.102971,2298.286494
1414.872570,-11399.171507,962.267725,4749.792088
1414.872891,-9696.697840,-1628.453072,3294.210641
1414.873212,-7920.203579,-1480.411884,-229.828649
1414.873533,-9030.512492,-1850.514855,76.609550
1414.873853,-9548.656652,0.000000,2298.286494
1414.874174,-8512.368333,-1184.329507,3294.210641
1414.874495,-9400.615463,-888.247130,1378.971896
1414.874816,-8068.244768,-148.041188,1608.800546
1414.875136,-9770.718434,-1480.411884,1149.143247
1414.875457,-11547.212695,-148.041188,4290.134789
1414.875778,-10658.965565,-1184.329507,3753.867940
1414.876099,-10362.883188,-222.061783,2451.505594
1414.876420,-9992.780217,148.041188,2451.505594
1414.876740,-10510.924376,888.247130,2834.553343
1414.877061,-9918.759623,-740.205942,3217.601092
1414.877382,-8882.471304,-1850.514855,229.828649
1414.877703,-7402.059420,148.041188,459.657299
1414.878023,-9474.636058,-888.247130,459.657299
1414.878344,-8438.347739,296.082377,3217.601092
1414.878665,-10658.965565,-2072.576638,2451.505594
1414.878986,-9474.636058,-1554.432478,1378.971896
1414.879307,-9400.615463,-518.144159,1225.752797
1414.879627,-11029.068536,-296.082377,2604.724693
1414.879948,-10066.800811,-1554.432478,1532.190996
1414.880269,-9400.615463,-1184.329507,-153.219100
1414.880590,-9030.512492,444.123565,-153.219100
1414.880910,-8586.388927,888.247130,-459.657299
1414.881231,-10732.986159,0.000000,1072.533697
1414.881552,-10140.821405,-1776.494261,-153.219100
1414.881873,-8660.409521,-1332.370696,-1378.971896
1414.882193,-9770.718434,-444.123565,306.438199
1414.882514,-10214.842000,-444.123565,1302.362347
1414.882835,-9696.697840,-1554.432478,1838.629195
1414.883156,-9474.636058,-2590.720797,-383.047749
1414.883477,-8512.368333,-296.082377,-995.924147
1414.883797,-9844.739029,0.000000,-1378.971896
1414.884118,-9252.574275,296.082377,383.047749
1414.884439,-10066.800811,0.000000,-229.828649
1414.884760,-9178.553681,666.185348,-383.047749
1414.885080,-8956.491898,1258.350101,383.047749
1414.885401,-10362.883188,-370.102971,766.095498
1414.885722,-10140.821405,-1480.411884,459.657299
1414.886043,-10658.965565,-2146.597232,-689.485948
1414.886364,-9548.656652,2072.576638,1072.533697
1414.886684,-10955.047942,2812.782580,3064.381992
1414.887005,-10881.027347,1110.308913,4443.353888
1414.887326,-10510.924376,-1480.411884,919.314598
1414.887647,-9178.553681,-1924.535449,-2298.286494
1414.887967,-6735.874072,-666.185348,-3524.039291
1414.888288,-7402.059420,148.041188,459.657299
1414.888609,-8438.347739,-814.226536,1225.752797
1414.888930,-8142.265362,-888.247130,0.000000
1414.889251,-9918.759623,740.205942,1608.800546
1414.889571,-10881.027347,1628.453072,3677.258390
1414.889892,-13027.624579,518.144159,5822.325785
1414.890213,-11695.253884,148.041188,4443.353888
1414.890534,-9992.780217,74.020594,1991.848295
1414.890854,-6883.915261,2146.597232,1685.410096
1414.891175,-10955.047942,-888.247130,2528.115143
1414.891496,-7328.038826,0.000000,1378.971896
1414.891817,-10436.903782,-2368.659014,0.000000
1414.892138,-9104.533087,1332.370696,229.828649
1414.892458,-10362.883188,2220.617826,2451.505594
1414.892779,-11547.212695,296.082377,4903.011187
1414.893100,-9992.780217,-1628.453072,2757.943793
1414.893421,-9844.739029,-740.205942,842.705048
1414.893741,-10658.965565,-888.247130,2068.457845
1414.894062,-8956.491898,-1628.453072,1762.019645
1414.894383,-8808.450710,-2072.576638,1838.629195
1414.894704,-9326.594869,-2220.617826,-536.266849
1414.895024,-8364.327145,1258.350101,-766.095498
1414.895345,-10066.800811,2072.576638,1149.143247
1414.895666,-10214.842000,444.123565,1532.190996
1414.895987,-9326.594869,-1332.370696,229.828649
1414.896308,-9844.739029,-1184.329507,76.609550
1414.896628,-10288.862594,-296.082377,1838.629195
1414.896949,-11103.089130,-1036.288319,2374.896044
1414.897270,-9622.677246,-2664.741391,995.924147
1414.897591,-8290.306550,-3627.009116,-3677.258390
1414.897911,-6587.832884,222.061783,-4826.401637
1414.898232,-7920.203579,2886.803174,-1838.629195
1414.898553,-10584.944971,1332.370696,1762.019645
1414.898874,-10214.842000,-518.144159,1762.019645
1414.899195,-10807.006753,-1184.329507,536.266849
1414.899515,-10732.986159,-1184.329507,919.314598
1414.899836,-11325.150913,-592.164754,2145.067394
1414.900157,-10066.800811,-814.226536,2145.067394
1414.900478,-7254.018232,-222.061783,-919.314598
1414.900798,-7179.997637,2590.720797,-2451.505594
1414.901119,-9178.553681,1850.514855,-383.047749
1414.901440,-8808.450710,0.000000,919.314598
1414.901761,-9400.615463,-3182.885551,766.095498
1414.902082,-9918.759623,-2664.741391,919.314598
1414.902402,-9252.574275,0.000000,2757.943793
1414.902723,-11843.295072,0.000000,4136.915689
1414.903044,-11399.171507,370.102971,5822.325785
1414.903365,-8290.306550,-518.144159,1915.238745
1414.903685,-10362.883188,74.020594,2145.067394
1414.904006,-9844.739029,222.061783,2374.896044
1414.904327,-8734.430116,-296.082377,3294.210641
1414.904648,-9252.574275,-3552.988522,1378.971896
1414.904968,-9252.574275,-1554.432478,229.828649
1414.905289,-8808.450710,2072.576638,1378.971896
1414.905610,-11399.171507,1406.391290,3370.820191
1414.905931,-9252.574275,2368.659014,3600.648841
1414.906252,-10732.986159,666.185348,2911.162892
1414.906572,-10362.883188,814.226536,2298.286494
1414.906893,-8956.491898,1036.288319,1838.629195
1414.907214,-10955.047942,-1036.288319,2451.505594
1414.907535,-8068.244768,-1998.556043,459.657299
1414.907855,-8660.409521,-1628.453072,-766.095498
1414.908176,-9770.718434,444.123565,1455.581446
1414.908497,-10881.027347,-296.082377,2681.334243
1414.908818,-10362.883188,-1406.391290,3064.381992
1414.909139,-11103.089130,-2960.823768,459.657299
1414.909459,-10288.862594,-370.102971,76.609550
1414.909780,-10288.862594,740.205942,1608.800546
1414.910101,-7846.182985,2590.720797,3753.867940
1414.910422,-10658.965565,-5921.647536,-2068.457845
1414.910742,-4219.173869,740.205942,-3217.601092
1414.911063,-10955.047942,-3108.864956,-3064.381992
1414.911384,-7920.203579,518.144159,-229.828649
1414.911705,-7846.182985,-518.144159,612.876398
1414.912026,-10584.944971,-2368.659014,1225.752797
1414.912346,-7254.018232,0.000000,-2604.724693
1414.912667,-11029.068536,-814.226536,-995.924147
1414.912988,-10955.047942,222.061783,3600.648841
1414.913309,-7328.038826,-2812.782580,-1762.019645
1414.913629,-10066.800811,666.185348,-1455.581446
1414.913950,-8364.327145,1924.535449,-919.314598
1414.914271,-8216.285956,2590.720797,-842.705048
1414.914592,-10658.965565,962.267725,1915.238745
1414.914912,-9326.594869,-1110.308913,-689.485948
1414.915233,-8142.265362,1110.308913,76.609550
1414.915554,-11843.295072,-1036.288319,1302.362347
1414.915875,-8512.368333,-1184.329507,3370.820191
1414.916196,-9770.718434,-4737.318029,1685.410096
1414.916516,-8660.409521,-2146.597232,1532.190996
1414.916837,-9548.656652,888.247130,919.314598
1414.917158,-10732.986159,1332.370696,2528.115143
1414.917479,-9030.512492,444.123565,3217.601092
1414.917799,-7994.224174,-148.041188,-306.438199
1414.918120,-8660.409521,962.267725,229.828649
1414.918441,-11325.150913,-74.020594,2911.162892
1414.918762,-9770.718434,666.185348,4673.182538
1414.919083,-10807.006753,-2146.597232,3524.039291
1414.919403,-10955.047942,-2960.823768,1838.629195
1414.919724,-8660.409521,1776.494261,1838.629195
1414.920045,-11843.295072,1776.494261,4979.620737
1414.920366,-9030.512492,1332.370696,3830.477490
1414.920686,-8290.306550,148.041188,919.314598
1414.921007,-9474.636058,222.061783,306.438199
1414.921328,-9252.574275,296.082377,1225.752797
1414.921649,-10807.006753,-1184.329507,3677.258390
1414.921970,-9770.718434,-2960.823768,3294.210641
1414.922290,-9770.718434,-1776.494261,995.924147
1414.922611,-10807.006753,-370.102971,1072.533697
1414.922932,-9548.656652,666.185348,2221.676944
1414.923253,-10140.821405,-222.061783,2221.676944
1414.923573,-9178.553681,-888.247130,-612.876398
1414.923894,-9178.553681,0.000000,0.000000
1414.924215,-8586.388927,-962.267725,612.876398
1414.924536,-9548.656652,-2294.638420,1378.971896
1414.924856,-10288.862594,-3404.947333,-229.828649
1414.925177,-8586.388927,-1258.350101,-995.924147
1414.925498,-8882.471304,296.082377,-1991.848295
1414.925819,-9474.636058,740.205942,536.266849
1414.926140,-9548.656652,-444.123565,612.876398
1414.926460,-9326.594869,-1924.535449,-1455.581446
1414.926781,-8290.306550,444.123565,-1685.410096
1414.927102,-9844.739029,0.000000,306.438199
1414.927423,-9918.759623,0.000000,1685.410096
1414.927743,-9548.656652,-3108.864956,-383.047749
1414.928064,-8512.368333,0.000000,-2374.896044
1414.928385,-8586.388927,1850.514855,-1302.362347
1414.928706,-11399.171507,1776.494261,1685.410096
1414.929027,-10881.027347,1184.329507,3140.991542
1414.929347,-8586.388927,-888.247130,-919.314598
1414.929668,-7846.182985,-1332.370696,-3064.381992
1414.929989,-7772.162391,444.123565,-1608.800546
1414.930310,-11251.130318,1110.308913,2145.067394
1414.930630,-9252.574275,222.061783,1302.362347
1414.930951,-9622.677246,1702.473667,1915.238745
1414.931272,-11251.130318,592.164754,3294.210641
1414.931593,-11325.150913,-222.061783,4060.306139
1414.931914,-11843.295072,-2368.659014,4290.134789
1414.932234,-9104.533087,-1702.473667,1838.629195
1414.932555,-9474.636058,296.082377,1532.190996
1414.932876,-9474.636058,296.082377,2374.896044
1414.933197,-8734.430116,0.000000,2451.505594
1414.933517,-9178.553681,-1850.514855,459.657299
1414.933838,-9030.512492,0.000000,-153.219100
1414.934159,-9622.677246,592.164754,1149.143247
1414.934480,-10658.965565,1702.473667,3677.258390
1414.934801,-11177.109724,148.041188,4673.182538
1414.935121,-10436.903782,-1258.350101,1915.238745
1414.935442,-9030.512492,222.061783,2604.724693
1414.935763,-10658.965565,-370.102971,2681.334243
1414.936084,-9770.718434,296.082377,4060.306139
1414.936404,-10436.903782,-2960.823768,1532.190996
1414.936725,-7105.977043,-592.164754,-689.485948
1414.937046,-8364.327145,518.144159,0.000000
1414.937367,-9178.553681,296.082377,1378.971896
1414.937687,-9992.780217,-2812.782580,2298.286494
1414.938008,-7846.182985,-3849.070898,0.000000
1414.938329,-8808.450710,-1776.494261,-306.438199
1414.938650,-11621.233289,-296.082377,1838.629195
1414.938971,-12361.439231,814.226536,4826.401637
1414.939291,-9844.739029,222.061783,2298.286494
1414.939612,-9474.636058,-1184.329507,-919.314598
1414.939933,-7179.997637,-148.041188,-2987.772442
1414.940254,-8142.265362,-962.267725,-2451.505594
1414.940574,-8512.368333,0.000000,-689.485948
1414.940895,-7772.162391,-1480.411884,-3447.429741
1414.941216,-8586.388927,1184.329507,-1149.143247
1414.941537,-10955.047942,518.144159,536.266849
1414.941858,-11621.233289,148.041188,2145.067394
1414.942178,-13323.706956,-1110.308913,2911.162892
1414.942499,-9770.718434,148.041188,1302.362347
1414.942820,-10214.842000,74.020594,383.047749
1414.943141,-9770.718434,-370.102971,919.314598
1414.943461,-8586.388927,-1554.432478,612.876398
1414.943782,-7179.997637,-2220.617826,-2757.943793
1414.944103,-7920.203579,1702.473667,-1378.971896
1414.944424,-9770.718434,814.226536,1225.752797
1414.944745,-10881.027347,1850.514855,3600.648841
1414.945065,-10658.965565,-1702.473667,1225.752797
1414.945386,-8734.430116,-370.102971,1378.971896
1414.945707,-8882.471304,-1110.308913,1915.238745
1414.946028,-10732.986159,-2664.741391,3907.087040
1414.946348,-9104.533087,-2442.679609,3294.210641
1414.946669,-8512.368333,-3108.864956,-612.876398
1414.946990,-8512.368333,1184.329507,-306.438199
1414.947311,-9844.739029,2146.597232,2681.334243
1414.947631,-9844.739029,2368.659014,3600.648841
1414.947952,-9474.636058,666.185348,3140.991542
1414.948273,-9474.636058,-1332.370696,1149.143247
1414.948594,-9104.533087,-592.164754,1378.971896
1414.948915,-12361.439231,-740.205942,4213.525239
1414.949235,-10066.800811,-1480.411884,5132.839837
1414.949556,-9548.656652,-1406.391290,1225.752797
1414.949877,-9104.533087,1184.329507,612.876398
1414.950198,-8734.430116,2590.720797,-229.828649
1414.950518,-9178.553681,3330.926739,1532.190996
1414.950839,-10881.027347,-592.164754,2145.067394
1414.951160,-9474.636058,888.247130,536.266849
1414.951481,-11103.089130,-1184.329507,1455.581446
1414.951802,-11547.212695,-888.247130,2298.286494
1414.952122,-11251.130318,-666.185348,4290.134789
1414.952443,-10362.883188,-1628.453072,0.000000
1414.952764,-8290.306550,-370.102971,-1072.533697
1414.953085,-8512.368333,666.185348,-1915.238745
1414.953405,-8290.306550,1702.473667,-766.095498
1414.953726,-8586.388927,-2146.597232,-842.705048
1414.954047,-8734.430116,-1628.453072,-1685.410096
1414.954368,-9474.636058,-1406.391290,-383.047749
1414.954689,-11103.089130,-1480.411884,2221.676944
1414.955009,-11103.089130,-2072.576638,2374.896044
1414.955330,-10658.965565,-1480.411884,459.657299
1414.955651,-9252.574275,1184.329507,76.609550
1414.955972,-9696.697840,3034.844362,76.609550
1414.956292,-10436.903782,2072.576638,1149.143247
1414.956613,-9326.594869,-1998.556043,-1149.143247
1414.956934,-7179.997637,-1998.556043,-2987.772442
1414.957255,-8216.285956,-1776.494261,-2145.067394
1414.957575,-9918.759623,-1406.391290,1685.410096
1414.957896,-9400.615463,-962.267725,3140.991542
1414.958217,-9326.594869,-222.061783,536.266849
1414.958538,-10658.965565,1480.411884,1608.800546
1414.958859,-11029.068536,2960.823768,2145.067394
1414.959179,-10140.821405,888.247130,4290.134789
1414.959500,-9178.553681,-3330.926739,1685.410096
1414.959821,-8216.285956,-3478.967927,-383.047749
1414.960142,-7698.141797,-1332.370696,383.047749
1414.960462,-10584.944971,-296.082377,2068.457845
1414.960783,-8586.388927,222.061783,2604.724693
1414.961104,-9030.512492,666.185348,1149.143247
1414.961425,-9844.739029,2368.659014,2604.724693
1414.961745,-11621.233289,518.144159,1915.238745
1414.962066,-10732.986159,-370.102971,3907.087040
1414.962387,-8808.450710,-4589.276840,229.828649
1414.962708,-6291.750507,-1850.514855,-2451.505594
1414.963029,-9548.656652,2590.720797,229.828649
1414.963349,-10807.006753,1628.453072,4290.134789
1414.963670,-10066.800811,1258.350101,4749.792088
1414.963991,-12139.377449,-2220.617826,2911.162892
1414.964312,-9474.636058,-1480.411884,1608.800546
1414.964632,-11399.171507,592.164754,3294.210641
1414.964953,-12435.459826,444.123565,5439.278036
1414.965274,-9400.615463,-1850.514855,1685.410096
1414.965595,-6809.894666,0.000000,-1532.190996
1414.965916,-8734.430116,-740.205942,-2145.067394
1414.966236,-8734.430116,148.041188,-689.485948
1414.966557,-10732.986159,-888.247130,536.266849
1414.966878,-9474.636058,-148.041188,-919.314598
1414.967199,-8882.471304,2516.700203,-1915.238745
1414.967519,-12361.439231,2220.617826,2451.505594
1414.967840,-11843.295072,222.061783,4366.744339
1414.968161,-10214.842000,-3182.885551,2145.067394
1414.968482,-9326.594869,-3627.009116,-1608.800546
1414.968802,-9030.512492,-1480.411884,-536.266849
1414.969123,-9178.553681,-370.102971,0.000000
1414.969444,-9622.677246,-222.061783,766.095498
1414.969765,-8364.327145,-740.205942,-2221.676944
1414.970086,-6883.915261,592.164754,-2451.505594
1414.970406,-9770.718434,0.000000,-153.219100
1414.970727,-11251.130318,-1480.411884,2911.162892
1414.971048,-9770.718434,-4293.194464,1302.362347
1414.971369,-9252.574275,-1110.308913,0.000000
1414.971689,-8956.491898,1332.370696,-536.266849
1414.972010,-9918.759623,1258.350101,1149.143247
1414.972331,-9548.656652,370.102971,2834.553343
1414.972652,-8438.347739,-1406.391290,-1455.581446
1414.972972,-8586.388927,148.041188,536.266849
1414.973293,-13101.645173,-2516.700203,3140.991542
1414.973614,-10436.903782,-1776.494261,6052.154434
1414.973935,-11251.130318,-3330.926739,3524.039291
1414.974256,-10881.027347,-1850.514855,2757.943793
1414.974576,-8068.244768,370.102971,842.705048
1414.974897,-10288.862594,1924.535449,2911.162892
1414.975218,-7105.977043,0.000000,-383.047749
1414.975539,-6217.729913,-740.205942,-4136.915689
1414.975859,-7031.956449,888.247130,-1608.800546
1414.976180,-9252.574275,1406.391290,1149.143247
1414.976501,-10658.965565,740.205942,3447.429741
1414.976822,-11029.068536,-2516.700203,4060.306139
1414.977142,-10807.006753,-518.144159,2068.457845
1414.977463,-11103.089130,814.226536,2911.162892
1414.977784,-11917.315666,740.205942,4749.792088
1414.978105,-10362.883188,444.123565,4826.401637
1414.978426,-9030.512492,-2368.659014,229.828649
1414.978746,-8364.327145,-444.123565,-1762.019645
1414.979067,-8290.306550,592.164754,383.047749
1414.979388,-10140.821405,-2368.659014,2451.505594
1414.979709,-8364.327145,-2146.597232,995.924147
